timestamp,accX,accY,accZ,filteredAccY,phase,repCount,t_diff,energy
130.007,-0.002101,-0.050432,-0.017416,-0.031471,idle,4,0.020000000000010232,0.06936874817572494
130.027,-0.032132,-0.014985,-0.032801,-0.028174,idle,4,0.01999999999998181,0.06728545536997668
130.047,-0.040847,-0.052642,-0.054558,-0.033067,idle,4,0.020000000000010232,0.06582885963695169
130.067,-0.022074,-0.122238,-0.009129,-0.050901,idle,4,0.020000000000010232,0.06451927784777162
130.087,-0.000555,-0.203977,0.004561,-0.081517,idle,4,0.01999999999998181,0.06393602727340453
130.107,-0.010802,-0.217374,0.066443,-0.108688,idle,4,0.020000000000010232,0.06428638681576321
130.126,0.00934,-0.239317,0.053183,-0.134814,idle,4,0.019000000000005457,0.06508031919043858
130.146,0.018538,-0.167375,0.089905,-0.141326,idle,4,0.01999999999998181,0.06594869519135306
130.166,0.029818,-0.031476,0.041788,-0.119356,idle,4,0.020000000000010232,0.06638818491932734
130.186,0.055348,0.17679,-0.012005,-0.060127,idle,4,0.020000000000010232,0.06641370215293119
130.206,0.05074,0.256449,-0.057527,0.003188,idle,4,0.01999999999998181,0.06635121138829735
130.226,0.049307,0.36603,-0.13479,0.075757,idle,4,0.020000000000010232,0.06659690839234095
130.246,0.091263,0.247021,-0.047138,0.11001,idle,4,0.020000000000010232,0.06736559281158398
130.266,0.248101,0.066916,0.090117,0.101391,idle,4,0.01999999999998181,0.06821846706069541
130.285,0.342778,0.044259,0.108639,0.089965,idle,4,0.019000000000005457,0.06886637232089457
130.305,0.291404,-0.062802,0.180882,0.059411,idle,4,0.020000000000010232,0.068996493132008
130.325,0.265531,0.059396,0.167423,0.059408,idle,4,0.01999999999998181,0.06951755388570931
130.345,0.291863,0.207673,0.123596,0.089061,idle,4,0.020000000000010232,0.07025606164615159
130.365,0.302244,0.304617,0.126172,0.132172,idle,4,0.020000000000010232,0.07197215943369467
130.385,0.324211,0.179842,0.126005,0.141706,idle,4,0.01999999999998181,0.07363886659920718
130.405,0.336405,0.25062,0.088247,0.163489,idle,4,0.020000000000010232,0.07510414530100194
130.424,0.39595,0.231163,-0.099069,0.177024,idle,4,0.019000000000005457,0.07651615983582942
130.444,0.413223,0.240787,-0.073046,0.189776,idle,4,0.01999999999998181,0.07887898489925271
130.464,0.438124,0.203586,-0.070526,0.192538,idle,4,0.020000000000010232,0.08090154205688722
130.484,0.436838,0.16851,-0.061065,0.187733,idle,4,0.020000000000010232,0.08193519878524581
130.504,0.426677,0.108838,-0.117275,0.171954,idle,4,0.01999999999998181,0.08250694639720699
130.524,0.378785,0.153577,-0.183973,0.168278,idle,4,0.020000000000010232,0.08352862671005823
130.543,0.331675,0.204774,-0.2289,0.175578,idle,4,0.019000000000005457,0.08490254087004384
130.563,0.271908,0.224556,-0.142318,0.185373,idle,4,0.01999999999998181,0.08664535042983121
130.583,0.264966,0.200988,-0.169891,0.188496,idle,4,0.020000000000010232,0.08851319852544717
130.604,0.247595,0.180334,-0.167277,0.186864,idle,4,0.021000000000015007,0.09031728225188207
130.623,0.21441,0.047132,-0.236282,0.158917,idle,4,0.018999999999977035,0.09146836741932556
130.643,0.129557,-0.079518,-0.104025,0.11123,idle,4,0.020000000000010232,0.09196952412437617
130.663,0.073827,-0.063479,0.170274,0.076289,idle,4,0.020000000000010232,0.09220181740153843
130.683,-0.00412,0.010984,0.046071,0.063228,idle,4,0.01999999999998181,0.09233105037551631
130.703,-0.084121,0.177595,-0.002582,0.086101,idle,4,0.020000000000010232,0.0926220187579495
130.723,-0.171501,0.245677,-0.018721,0.118016,idle,4,0.020000000000010232,0.09321277456513824
130.742,-0.247131,0.169071,0.013236,0.128227,idle,4,0.018999999999977035,0.09386019040752601
130.762,-0.25391,0.076199,0.052443,0.117822,idle,4,0.020000000000010232,0.09413215357837457
130.782,-0.255166,0.031478,0.049815,0.100553,idle,4,0.020000000000010232,0.09398827985779042
130.802,-0.26414,0.017382,0.008489,0.083919,idle,4,0.01999999999998181,0.09368406956448681
130.822,-0.279587,0.003449,-0.032525,0.067825,idle,4,0.020000000000010232,0.09326668203419235
130.842,-0.293818,-0.013532,-0.055316,0.051553,idle,4,0.020000000000010232,0.09269709999898752
130.861,-0.317277,-0.011541,-0.07487,0.038934,idle,4,0.018999999999977035,0.09189940177733635
130.882,-0.334636,0.026225,-0.099577,0.036393,idle,4,0.021000000000015007,0.09102996241469828
130.901,-0.348959,0.055272,-0.095245,0.040168,idle,4,0.019000000000005457,0.09011431770481151
130.921,-0.357168,0.072203,-0.062295,0.046575,idle,4,0.01999999999998181,0.08914444415970689
130.941,-0.359546,0.106885,-0.083192,0.058637,idle,4,0.020000000000010232,0.08807974250614872
130.961,-0.343247,0.14307,-0.097929,0.075524,idle,4,0.020000000000010232,0.08691892645393762
130.981,-0.338942,0.137032,-0.039807,0.087825,idle,4,0.01999999999998181,0.0858460547164767
131.001,-0.288513,0.076144,0.022328,0.085489,idle,4,0.020000000000010232,0.08470419313219225
131.021,-0.233016,0.022913,0.072049,0.072974,idle,4,0.01999999999998181,0.0833931722950766
131.04,-0.207293,0.047675,0.052744,0.067914,idle,4,0.019000000000005457,0.08192470393566666
131.06,-0.164607,0.114287,0.04625,0.077189,idle,4,0.020000000000010232,0.08051577447338162
131.08,-0.105897,0.181839,0.039215,0.098119,idle,4,0.020000000000010232,0.07950753524162632
131.1,-0.063763,0.173973,0.069561,0.11329,idle,4,0.01999999999998181,0.07878520096208122
131.12,-0.027664,0.194728,0.103056,0.129577,idle,4,0.020000000000010232,0.07830181576243885
131.14,0.010854,0.245456,0.112445,0.152753,idle,4,0.01999999999998181,0.07817655452525436
131.16,0.036401,0.306385,0.03427,0.183479,idle,4,0.020000000000010232,0.07870038175435543
131.18,0.003323,0.272697,0.05031,0.201323,idle,4,0.020000000000010232,0.07950348154108729
131.2,-0.010557,0.292624,0.127308,0.219583,idle,4,0.01999999999998181,0.08038354994871803
131.219,0.004705,0.289467,0.142773,0.23356,idle,4,0.019000000000005457,0.08137431279621679
131.239,0.009048,0.275267,0.104148,0.241901,idle,4,0.020000000000010232,0.08239598601495973
131.259,0.00443,0.269827,0.064866,0.247487,idle,4,0.01999999999998181,0.08355144049664137
131.279,0.019097,0.28798,0.047642,0.255585,idle,4,0.020000000000010232,0.08498083748105974
131.299,0.008388,0.281014,0.067981,0.260671,idle,4,0.020000000000010232,0.08647495947127148
131.319,0.039738,0.204099,0.075238,0.249357,idle,4,0.01999999999998181,0.0875766659446878
131.338,0.037232,0.115645,0.079715,0.222614,idle,4,0.019000000000005457,0.08826442807937382
131.358,0.061618,0.161683,0.011315,0.210428,idle,4,0.020000000000010232,0.08891107369734443
131.378,0.116739,0.150579,-0.008373,0.198458,idle,4,0.01999999999998181,0.0894068020862019
131.399,0.09471,0.070119,0.093289,0.17279,idle,4,0.021000000000015007,0.08959398962678754
131.418,0.075688,-0.020146,0.061645,0.134203,idle,4,0.019000000000005457,0.08951215541035779
131.438,0.027768,0.025435,0.115759,0.11245,idle,4,0.01999999999998181,0.0893609020186176
131.458,0.064035,0.10541,0.085229,0.111042,idle,4,0.020000000000010232,0.08926015790475549
131.478,0.074431,0.094918,0.016749,0.107817,idle,4,0.020000000000010232,0.08921373625917015
131.498,-0.014948,0.012931,0.021866,0.08884,idle,4,0.01999999999998181,0.08918552992343999
131.517,-0.023614,-0.167942,0.087361,0.037483,idle,4,0.019000000000005457,0.08931819915212662
131.537,0.061631,-0.097931,0.007359,0.010401,idle,4,0.020000000000010232,0.08964137745585063
131.557,-0.013229,0.063033,-0.071723,0.020927,idle,4,0.01999999999998181,0.08987176161880402
131.577,-0.096421,0.022544,-0.059942,0.02125,idle,4,0.020000000000010232,0.09009308737602123
131.598,-0.092461,-0.025835,-0.026682,0.011833,idle,4,0.021000000000015007,0.09038087086422335
131.617,-0.049467,-0.003954,-0.006208,0.008676,idle,4,0.018999999999977035,0.09069095226827441
131.636,-0.036352,-0.082126,-0.009002,-0.009484,idle,4,0.019000000000005457,0.09115283903920401
131.657,-0.100278,-0.071869,-0.022031,-0.021961,idle,4,0.021000000000015007,0.09172521471055292
131.676,-0.025815,0.108031,0.023302,0.004037,idle,4,0.018999999999977035,0.09201777550016052
131.696,-0.002962,0.156107,-1.2e-05,0.034451,idle,4,0.020000000000010232,0.09207954216034389
131.716,0.009702,-0.009631,0.038529,0.025635,idle,4,0.020000000000010232,0.09214184435751879
131.736,0.028974,-0.195902,0.024721,-0.018673,idle,4,0.01999999999998181,0.09254698423044354
131.756,0.078703,-0.127669,-0.035208,-0.040472,idle,4,0.020000000000010232,0.09317012540419162
131.776,0.05225,0.033521,-0.037675,-0.025673,idle,4,0.020000000000010232,0.09353856065555853
131.797,0.009933,-0.048554,0.065126,-0.03025,idle,4,0.020999999999986585,0.09388018013542725
131.815,0.106462,-0.166961,0.068025,-0.057592,idle,4,0.018000000000000682,0.0944891297118082
131.836,0.077922,0.123048,-0.051514,-0.021464,idle,4,0.021000000000015007,0.0945929134166325
131.855,0.064101,0.361088,-0.087181,0.055047,idle,4,0.018999999999977035,0.09418528031173001
131.875,0.007453,0.158572,-0.004164,0.075752,idle,4,0.020000000000010232,0.09378935715627837
131.895,-0.028907,-0.095824,0.13588,0.041436,idle,4,0.020000000000010232,0.09365967821659449
131.915,-0.036461,-0.111088,0.180979,0.010932,idle,4,0.01999999999998181,0.09370811829292311
131.935,0.020638,0.127152,0.123854,0.034176,idle,4,0.020000000000010232,0.09353019819571086
131.954,0.035575,0.309003,0.102859,0.089141,idle,4,0.019000000000005457,0.09311043562305363
131.975,0.071408,0.024348,0.159014,0.076182,idle,4,0.020999999999986585,0.09247591573627532
131.994,0.085665,-0.076127,0.243735,0.045721,idle,4,0.019000000000005457,0.09184016146811019
132.014,0.234953,0.037578,0.202035,0.044092,idle,4,0.020000000000010232,0.09124165676158923
132.034,0.568941,0.066972,0.040617,0.048668,idle,4,0.01999999999998181,0.09055149808657165
132.054,0.500447,-0.034607,-0.023769,0.032013,idle,4,0.020000000000010232,0.08967738764962872
132.074,0.104685,-0.124242,0.150222,0.000762,idle,4,0.020000000000010232,0.08850372751683518
132.095,0.012736,-0.062085,0.17623,-0.011807,idle,4,0.020999999999986585,0.08686788788602469
132.113,-0.089106,0.067336,0.147966,0.004021,idle,4,0.018000000000000682,0.08436332418704558
132.133,-0.119907,0.171847,0.057579,0.037586,idle,4,0.020000000000010232,0.08128752261074505
132.153,0.014265,0.081239,0.068677,0.046317,idle,4,0.01999999999998181,0.07862229335729638
132.173,0.056618,-0.073596,0.092785,0.022334,idle,4,0.020000000000010232,0.07743787063553154
132.193,0.056073,-0.076687,0.018685,0.00253,idle,4,0.020000000000010232,0.0774455615069797
132.213,0.12121,-0.043838,0.127633,-0.006743,idle,4,0.01999999999998181,0.07806232444099635
132.233,0.083159,-0.004937,0.112905,-0.006382,idle,4,0.020000000000010232,0.07865116910270235
132.253,0.017717,0.040218,0.060141,0.002938,idle,4,0.01999999999998181,0.07912793371003543
132.273,-0.005271,0.008418,0.015905,0.004034,idle,4,0.020000000000010232,0.07958801286353445
132.292,0.06639,-0.076225,0.024542,-0.012018,idle,4,0.019000000000005457,0.08017132515229063
132.312,0.04832,-0.067491,-0.061369,-0.023112,idle,4,0.020000000000010232,0.08088922868391284
132.332,0.009596,-0.102826,-0.041247,-0.039055,idle,4,0.01999999999998181,0.08186643882870998
132.352,-0.0074,-0.115065,-0.039764,-0.054257,idle,4,0.020000000000010232,0.08291605548201768
132.372,-0.000532,-0.044266,-0.032245,-0.052259,idle,4,0.020000000000010232,0.08381512610506317
132.392,0.013659,-0.118441,-0.020347,-0.065495,idle,4,0.01999999999998181,0.08468996856798584
132.412,0.022487,-0.148444,-0.025362,-0.082085,idle,4,0.020000000000010232,0.08564123501217018
132.431,0.019191,-0.142661,-0.03258,-0.0942,idle,4,0.019000000000005457,0.08657133734118282
132.451,0.005098,0.012841,0.013227,-0.072792,idle,4,0.01999999999998181,0.08697559760544744
132.471,0.005782,0.080786,0.019912,-0.042076,idle,4,0.020000000000010232,0.08691305623303576
132.491,0.015647,-0.001581,-0.008155,-0.033977,idle,4,0.020000000000010232,0.08689675173901722
132.511,0.047649,-0.032085,-0.003093,-0.033599,idle,4,0.01999999999998181,0.08687161021293346
132.531,-0.01425,-0.109901,0.015338,-0.048859,idle,4,0.020000000000010232,0.08689189013516907
132.551,0.011145,-0.048132,0.009927,-0.048714,idle,4,0.01999999999998181,0.0867152284619003
132.571,0.026616,0.000242,-0.013556,-0.038923,idle,4,0.020000000000010232,0.08631029875162298
132.591,-0.008442,0.018628,-0.05555,-0.027413,idle,4,0.020000000000010232,0.0857467962304825
132.61,-0.076872,-0.107727,-0.131641,-0.043475,idle,4,0.019000000000005457,0.08568773699373937
132.63,-0.031234,-0.138303,-0.118362,-0.062441,idle,4,0.01999999999998181,0.08627878861109754
132.65,-0.080886,0.009711,-0.010216,-0.048011,idle,4,0.020000000000010232,0.08682619160252542
132.67,-0.047905,0.127628,0.119659,-0.012883,idle,4,0.01999999999998181,0.08705345353314853
132.69,-0.058659,0.106463,0.219368,0.010986,idle,4,0.020000000000010232,0.08706716126153123
132.71,-0.128546,-0.004464,0.191009,0.007896,idle,4,0.020000000000010232,0.08689111883177966
132.73,-0.164117,-0.182014,0.180904,-0.030086,idle,4,0.01999999999998181,0.08686861799529969
132.749,-0.205021,-0.359002,0.209306,-0.095869,idle,4,0.019000000000005457,0.0877342643954837
132.769,-0.208202,-0.098377,0.211568,-0.09637,idle,4,0.020000000000010232,0.08867786937614194
132.789,-0.125788,0.235807,0.189034,-0.029935,idle,4,0.01999999999998181,0.08887722204621662
132.809,-0.092264,0.424532,0.134797,0.060959,idle,4,0.020000000000010232,0.0888595734969154
132.829,-0.05326,0.324111,0.159534,0.113589,idle,4,0.020000000000010232,0.08914484112590929
132.849,-0.053212,0.137309,0.144002,0.118333,idle,4,0.01999999999998181,0.08946699805029215
132.869,-0.060779,-0.125797,0.131108,0.069507,idle,4,0.020000000000010232,0.08950298250871433
132.889,-0.063201,-0.277086,0.123384,0.000188,idle,4,0.020000000000010232,0.08960719764384725
132.908,-0.118991,-0.15057,0.116694,-0.029963,idle,4,0.018999999999977035,0.08990350446471394
132.928,-0.124733,0.033837,0.108063,-0.017203,idle,4,0.020000000000010232,0.09008419850182177
132.948,-0.100883,-0.015606,0.140575,-0.016884,idle,4,0.020000000000010232,0.09020620631293721
132.968,-0.085687,-0.078661,0.130163,-0.029239,idle,4,0.01999999999998181,0.090347177819661
132.988,-0.015364,-0.005792,0.104506,-0.02455,idle,4,0.020000000000010232,0.09045108271719192
133.008,0.026832,-0.02349,0.116072,-0.024338,idle,4,0.020000000000010232,0.09059838029398153
133.028,-0.027082,0.060627,0.117884,-0.007345,idle,4,0.01999999999998181,0.09065488315713617
133.047,-0.14399,-0.026159,0.108219,-0.011108,idle,4,0.019000000000005457,0.09068598880066932
133.067,-0.143885,-0.143452,0.107534,-0.037576,idle,4,0.020000000000010232,0.09075867879211873
133.087,-0.090425,-0.074316,0.091764,-0.044924,idle,4,0.01999999999998181,0.09074864546121293
133.107,-0.10344,0.106121,-0.000564,-0.014715,idle,4,0.020000000000010232,0.09034090482393087
133.127,-0.088395,0.097377,-0.01301,0.007703,idle,4,0.020000000000010232,0.08953330225496692
133.147,-0.090939,-0.05495,0.084354,-0.004827,idle,4,0.01999999999998181,0.08824213111544638
133.167,0.014312,-0.192744,0.102941,-0.042411,idle,4,0.020000000000010232,0.08676135550971588
133.187,-0.057296,-0.241688,0.023621,-0.082266,idle,4,0.020000000000010232,0.08518105046648172
133.206,-0.164825,-0.076154,0.049512,-0.081044,idle,4,0.018999999999977035,0.0830946362273251
133.226,-0.055675,0.096062,-0.061145,-0.045623,idle,4,0.020000000000010232,0.08024501156845444
133.246,0.056516,0.284888,-0.096026,0.02048,idle,4,0.020000000000010232,0.07678275680210622
133.266,-0.105181,0.120715,0.002865,0.040527,idle,4,0.01999999999998181,0.0728683496830343
133.286,-0.037936,-0.005976,0.100747,0.031226,idle,4,0.020000000000010232,0.06844179447987488
133.306,0.055221,-0.187882,0.119729,-0.012596,idle,4,0.020000000000010232,0.06405486032621242
133.326,0.232052,-0.280397,0.247127,-0.066156,idle,4,0.01999999999998181,0.06066659340057577
133.346,0.160363,-0.2059,0.149493,-0.094105,idle,4,0.020000000000010232,0.05779261699205077
133.365,0.104978,-0.062994,0.170641,-0.087883,idle,4,0.019000000000005457,0.05494916027547533
133.385,0.081113,-0.09484,0.192924,-0.089274,idle,4,0.01999999999998181,0.05275532898143918
133.405,0.080418,-0.151601,0.271861,-0.101739,idle,4,0.020000000000010232,0.05177057826941841
133.425,0.170729,-0.034992,0.247529,-0.08839,idle,4,0.020000000000010232,0.05099767193179616
133.445,0.274209,0.009707,0.237197,-0.06877,idle,4,0.01999999999998181,0.049896460963079134
133.465,0.228283,-0.076376,0.24596,-0.070292,idle,4,0.020000000000010232,0.04880270814270247
133.485,0.147919,0.011262,0.233735,-0.053981,idle,4,0.020000000000010232,0.04789943866792916
133.505,0.113862,0.032387,0.293251,-0.036707,idle,4,0.01999999999998181,0.04767491566895636
133.524,0.096563,0.044379,0.288645,-0.02049,idle,4,0.019000000000005457,0.04761328624538353
133.544,0.086858,0.090058,0.184268,0.00162,idle,4,0.020000000000010232,0.04750675825258099
133.564,0.117904,0.075593,0.095382,0.016414,idle,4,0.01999999999998181,0.04747213658638554
133.584,0.182149,0.043647,0.144739,0.021861,idle,4,0.020000000000010232,0.04753961594275161
133.604,0.249081,0.117973,0.010262,0.041083,idle,4,0.020000000000010232,0.0478106069575959
133.624,0.273783,0.068942,-0.017369,0.046655,idle,4,0.01999999999998181,0.04819725245391845
133.644,0.250654,0.055164,0.089506,0.048357,idle,4,0.020000000000010232,0.04858930216954461
133.664,0.411945,0.174473,-0.199395,0.07358,idle,4,0.01999999999998181,0.049329962333202027
133.683,0.518028,0.211541,-0.467407,0.101172,idle,4,0.019000000000005457,0.0504103346849329
133.703,0.334788,0.164089,-0.24348,0.113756,idle,4,0.020000000000010232,0.05182177047281335
133.723,0.281756,0.298293,-0.301654,0.150663,idle,4,0.020000000000010232,0.05427442200605077
133.743,0.287195,0.204891,-0.483997,0.161509,idle,4,0.01999999999998181,0.056799410475651006
133.763,0.162239,0.21651,-0.499281,0.172509,idle,4,0.020000000000010232,0.059539842944867374
133.783,0.083693,0.254242,-0.502512,0.188856,idle,4,0.01999999999998181,0.06256426745549334
133.803,0.069657,0.223947,-0.506514,0.195874,idle,4,0.020000000000010232,0.06540153524130511
133.823,0.041263,0.189906,-0.50341,0.19468,idle,4,0.020000000000010232,0.06821283128598742
133.842,0.009261,0.145543,-0.503318,0.184853,idle,4,0.019000000000005457,0.0704377320848926
133.862,-0.0217,0.144892,-0.504493,0.176861,idle,4,0.01999999999998181,0.07219684868390337
133.882,-0.032102,0.129196,-0.510753,0.167328,idle,4,0.020000000000010232,0.07393341868353939
133.902,-0.0463,0.103862,-0.4987,0.154634,idle,4,0.01999999999998181,0.07542678221407614
133.922,-0.034428,0.095164,-0.426679,0.14274,idle,4,0.020000000000010232,0.07659888201922484
133.942,-0.016224,0.112198,-0.381411,0.136632,idle,4,0.020000000000010232,0.07725299688643693
133.962,0.078921,0.145202,-0.393261,0.138346,idle,4,0.01999999999998181,0.07805130339785955
133.981,0.159177,0.172471,-0.40243,0.145171,idle,4,0.019000000000005457,0.07915164561555355
134.007,0.129141,0.179271,-0.331261,0.151991,idle,4,0.02600000000001046,0.08034957026055417
134.022,0.059334,0.143247,-0.184596,0.150242,idle,4,0.014999999999986358,0.08146578857517879
134.041,-0.014527,0.12767,-0.163053,0.145728,idle,4,0.019000000000005457,0.0825354288477946
134.061,-0.076453,0.100588,-0.156717,0.1367,idle,4,0.020000000000010232,0.08344498816878919
134.081,-0.122367,0.108173,-0.163703,0.130994,idle,4,0.01999999999998181,0.08420971340543697
134.101,-0.120385,0.116729,-0.154051,0.128141,idle,4,0.020000000000010232,0.08494488900046064
134.121,-0.073124,0.130798,-0.072649,0.128673,idle,4,0.020000000000010232,0.08565213171354474
134.14,0.008399,0.159408,-0.005579,0.13482,idle,4,0.018999999999977035,0.08640146648685053
134.16,0.115922,0.152253,0.049648,0.138306,idle,4,0.020000000000010232,0.08722240612343125
134.18,0.202239,0.151395,0.137178,0.140924,idle,4,0.020000000000010232,0.08803556104485731
134.2,0.242633,0.14511,0.154528,0.141761,idle,4,0.01999999999998181,0.08880441870050679
134.22,0.272079,0.159315,0.143824,0.145272,idle,4,0.020000000000010232,0.08959021674760476
134.24,0.257588,0.189105,0.183689,0.154039,idle,4,0.020000000000010232,0.09049344038356932
134.26,0.207929,0.177984,0.251602,0.158828,idle,4,0.01999999999998181,0.09143365199963509
134.28,0.114708,0.130836,0.324946,0.153229,idle,4,0.020000000000010232,0.09220212798042766
134.3,0.024791,0.094034,0.362188,0.14139,idle,4,0.020000000000010232,0.09272610382126431
134.319,-0.026513,0.101435,0.360752,0.133399,idle,4,0.018999999999977035,0.09301693709907949
134.339,-0.049443,0.170532,0.378112,0.140826,idle,4,0.020000000000010232,0.09322390194769582
134.359,-0.043296,0.193199,0.3494,0.1513,idle,4,0.020000000000010232,0.09353268713540558
134.379,-0.031006,0.183343,0.354507,0.157709,idle,4,0.01999999999998181,0.0937367740336498
134.399,0.007479,0.10144,0.397956,0.146455,idle,4,0.020000000000010232,0.09354683233335706
134.419,0.041642,0.049728,0.42302,0.12711,idle,4,0.020000000000010232,0.09293104246074926
134.438,0.105509,0.101793,0.373533,0.122047,idle,4,0.018999999999977035,0.09251519059597599
134.459,0.115876,0.128743,0.356981,0.123386,idle,4,0.021000000000015007,0.09241819430499836
134.478,0.096054,0.324084,0.246589,0.163526,idle,4,0.019000000000005457,0.09278311242229835
134.5,0.082449,0.173314,0.441897,0.165483,idle,4,0.02199999999999136,0.09313189601312734
134.518,-0.014154,-0.002539,0.598006,0.131879,idle,4,0.018000000000000682,0.0929315727068625
134.538,-0.040819,0.090793,0.474379,0.123662,idle,4,0.020000000000010232,0.09263112737073263
134.558,0.006303,0.172357,0.377018,0.133401,idle,4,0.01999999999998181,0.0924812734859823
134.578,-0.010937,0.169185,0.372482,0.140557,idle,4,0.020000000000010232,0.09247509579551162
134.597,-0.052139,0.135584,0.379294,0.139563,idle,4,0.019000000000005457,0.0922625290079181
134.617,-0.054651,0.11975,0.373423,0.1356,idle,4,0.01999999999998181,0.09174091654609538
134.637,0.006407,0.121887,0.341291,0.132858,idle,4,0.020000000000010232,0.09134095729221445
134.657,0.046586,0.072543,0.297491,0.120795,idle,4,0.020000000000010232,0.09119181755503655
134.677,0.026877,0.021279,0.215489,0.100892,idle,4,0.01999999999998181,0.09109999939004736
134.697,-0.004343,0.03306,0.097764,0.087325,idle,4,0.020000000000010232,0.09093789063653214
134.717,-0.029004,0.053285,0.020773,0.080517,idle,4,0.020000000000010232,0.09042370014484483
134.737,-0.019205,0.050658,-0.012975,0.074545,idle,4,0.01999999999998181,0.08890674190753871
134.756,-0.019664,0.037857,-0.01849,0.067208,idle,4,0.019000000000005457,0.08732018757732113
134.776,-0.010706,0.046087,-0.03507,0.062984,idle,4,0.020000000000010232,0.08672933106840727
134.796,0.019091,0.05907,-0.054801,0.062201,idle,4,0.01999999999998181,0.08672785568716314
134.816,0.038362,0.044178,-0.064619,0.058596,idle,4,0.020000000000010232,0.086634410585453
134.836,0.050434,0.017382,-0.060269,0.050354,idle,4,0.020000000000010232,0.08652776058828693
134.856,0.069999,-0.006202,-0.049065,0.039042,idle,4,0.01999999999998181,0.0865851034462694
134.876,0.103193,-0.012216,-0.059616,0.028791,idle,4,0.020000000000010232,0.08639835733626018
134.896,0.139153,-0.020301,-0.091731,0.018972,idle,4,0.01999999999998181,0.08596085864177881
134.915,0.154013,-0.026908,-0.094949,0.009796,idle,4,0.019000000000005457,0.08572301407836319
134.935,0.151363,-0.042009,-0.106529,-0.000565,idle,4,0.020000000000010232,0.08556884420719207
134.955,0.139778,-0.052563,-0.141364,-0.010965,idle,4,0.020000000000010232,0.08537090425202988
134.975,0.131973,-0.086275,-0.182949,-0.026027,idle,4,0.01999999999998181,0.08538784071464246
134.997,0.099564,-0.082245,-0.140862,-0.03727,idle,4,0.02200000000001978,0.08554429871044758
135.016,0.08545,-0.040918,-0.097481,-0.038,idle,4,0.018999999999977035,0.08588394264195388
135.035,0.066872,0.013222,-0.141784,-0.027756,idle,4,0.019000000000005457,0.08606103981986463
135.054,0.033473,0.033757,-0.177682,-0.015453,idle,4,0.019000000000005457,0.08580710711947934
135.074,0.014634,0.013947,-0.124982,-0.009573,idle,4,0.020000000000010232,0.08539550252927987
135.095,0.005976,-0.027713,-0.028768,-0.013201,idle,4,0.020999999999986585,0.0853801777166955
135.114,-0.02186,-0.026526,0.005065,-0.015866,idle,4,0.019000000000005457,0.08559066000064447
135.134,-0.029544,-0.037621,-0.019158,-0.020217,idle,4,0.01999999999998181,0.0857427721070439
135.154,-0.041705,-0.014726,0.049851,-0.019119,idle,4,0.020000000000010232,0.08546213689529157
135.174,-0.030672,-0.026913,0.092375,-0.020678,idle,4,0.020000000000010232,0.08456029211871542
135.194,-0.021608,-0.047529,0.105531,-0.026048,idle,4,0.01999999999998181,0.08372914160770846
135.214,0.007612,-0.081823,0.086328,-0.037203,idle,4,0.020000000000010232,0.08361318127042935
135.233,0.058605,-0.108512,0.111781,-0.051465,idle,4,0.019000000000005457,0.08437319505653464
135.253,0.10647,-0.109244,0.138627,-0.063021,idle,4,0.01999999999998181,0.08539246658616824
135.273,0.115992,-0.136194,0.129266,-0.077655,idle,4,0.020000000000010232,0.08658989627086087
135.293,0.132855,-0.155645,0.112756,-0.093253,idle,4,0.020000000000010232,0.08773386196816169
135.313,0.175399,-0.211389,0.145455,-0.11688,idle,4,0.01999999999998181,0.0886652003504157
135.333,0.193152,-0.200122,0.162493,-0.133529,idle,4,0.020000000000010232,0.08947964538153927
135.353,0.176383,-0.221824,0.102943,-0.151188,idle,4,0.020000000000010232,0.09080881016105835
135.372,0.175381,-0.271549,-0.004963,-0.17526,idle,4,0.019000000000005457,0.09269599902750461
135.392,0.189816,-0.326076,0.046334,-0.205423,idle,4,0.01999999999998181,0.09514616918318262
135.412,0.208433,-0.315171,0.107636,-0.227373,idle,4,0.020000000000010232,0.0983788405615122
135.432,0.231826,-0.262333,0.099703,-0.234365,idle,4,0.01999999999998181,0.1019684764358879
135.452,0.233308,-0.278507,0.08848,-0.243193,idle,4,0.020000000000010232,0.10564392126158706
135.472,0.243367,-0.296393,0.063146,-0.253833,idle,4,0.020000000000010232,0.10965252662045716
135.492,0.248497,-0.302089,-0.020312,-0.263484,idle,4,0.01999999999998181,0.11391116349008253
135.511,0.29631,-0.28523,-0.04332,-0.267833,idle,4,0.019000000000005457,0.11820607091139894
135.531,0.49907,-0.304754,-0.064975,-0.275218,idle,4,0.020000000000010232,0.12260768122910137
135.551,0.424162,-0.189233,-0.09059,-0.258021,idle,4,0.01999999999998181,0.12640984178281064
135.571,0.285477,-0.155712,-0.116889,-0.237559,idle,4,0.020000000000010232,0.129586147159502
135.591,0.21024,-0.058251,-0.030653,-0.201697,idle,4,0.020000000000010232,0.13193231412869708
135.611,0.051532,-0.035768,0.133105,-0.168511,idle,4,0.01999999999998181,0.13362531424676213
135.631,-0.011505,0.03788,0.174127,-0.127233,idle,4,0.020000000000010232,0.1346828059489829
135.651,-0.082448,0.116199,0.207321,-0.078547,idle,4,0.020000000000010232,0.1351542496376086
135.67,-0.099918,0.194239,0.047691,-0.023989,idle,4,0.018999999999977035,0.13514425796508336
135.691,-0.013914,0.102254,-0.03837,0.001259,idle,4,0.021000000000015007,0.13496611664353514
135.71,0.074663,-0.135331,-0.033601,-0.026059,idle,4,0.019000000000005457,0.1346030622060675
135.73,0.121558,-0.219911,-0.0295,-0.064829,idle,4,0.01999999999998181,0.13434010917383668
135.75,0.086139,-0.149798,0.016441,-0.081823,idle,4,0.020000000000010232,0.13405539510471326
135.77,0.018683,-0.092206,0.047648,-0.0839,idle,4,0.020000000000010232,0.13354796911424208
135.79,-0.00828,-0.069776,0.082492,-0.081075,idle,4,0.01999999999998181,0.132869373675348
135.81,-0.008063,-0.069045,0.120298,-0.078669,idle,4,0.020000000000010232,0.13212603896994127
135.83,-0.004393,-0.085088,0.119168,-0.079953,idle,4,0.020000000000010232,0.1314602270956596
135.85,0.024063,-0.040938,0.038989,-0.07215,idle,4,0.01999999999998181,0.13078345475609315
135.869,0.066018,0.030327,0.008867,-0.051654,idle,4,0.019000000000005457,0.13005242913569678
135.889,0.054022,0.035203,0.011565,-0.034283,idle,4,0.020000000000010232,0.12935388262644198
135.909,0.059241,-0.065187,0.077516,-0.040464,idle,4,0.01999999999998181,0.12877601396453267
135.929,0.018624,-0.114007,0.149089,-0.055172,idle,4,0.020000000000010232,0.1282971480852559
135.949,-0.01589,-0.040063,0.129522,-0.052151,idle,4,0.020000000000010232,0.1277553367678357
135.969,0.011288,0.024911,0.071498,-0.036738,idle,4,0.01999999999998181,0.12704819519994456
135.988,0.019835,0.019621,0.011042,-0.025466,idle,4,0.019000000000005457,0.12620063405690693
136.008,-0.011591,-0.043591,0.025296,-0.029091,idle,4,0.020000000000010232,0.12535134101883305
136.028,-0.030948,-0.089179,0.032271,-0.041109,idle,4,0.01999999999998181,0.1245578866790181
136.048,-0.06713,-0.018686,0.001828,-0.036624,idle,4,0.020000000000010232,0.12382392806252276
136.068,-0.06425,0.062758,-0.035922,-0.016748,idle,4,0.020000000000010232,0.12308952997911102
136.088,-0.007331,0.036372,-0.030267,-0.006124,idle,4,0.01999999999998181,0.12235962171789619
136.109,0.020175,-0.012348,-0.01937,-0.007369,idle,4,0.021000000000015007,0.12160434145512625
136.127,-0.046946,0.150823,0.051063,0.02427,idle,4,0.018000000000000682,0.12080121764315238
136.148,-0.18865,-0.006137,0.145759,0.018188,idle,4,0.020999999999986585,0.11992395100457061
136.167,-0.146846,-0.040732,0.25685,0.006404,idle,4,0.019000000000005457,0.11897162806260939
136.187,-0.122821,0.180539,0.080386,0.041231,idle,4,0.020000000000010232,0.11809159931300883
136.207,-0.191522,0.513463,-0.062206,0.135677,idle,4,0.01999999999998181,0.11796657743042377
136.227,-0.201576,0.713792,-0.087792,0.2513,idle,4,0.020000000000010232,0.11973559999753153
136.247,-0.158732,0.533489,-0.039845,0.307738,idle,4,0.020000000000010232,0.122755066053928
136.267,-0.175197,0.344407,-0.023571,0.315072,idle,4,0.01999999999998181,0.12594580786387985
136.286,-0.229908,0.286134,-0.141167,0.309284,idle,4,0.019000000000005457,0.12903515075053076
136.307,-0.192507,0.309696,-0.241848,0.309367,idle,4,0.020999999999986585,0.13211929140631487
136.326,-0.119957,0.214741,-0.250125,0.290442,idle,4,0.019000000000005457,0.13460322914939646
136.346,-0.10998,0.197739,-0.157566,0.271901,idle,4,0.020000000000010232,0.13652453895278419
136.366,-0.132299,0.15168,-0.13013,0.247857,idle,4,0.020000000000010232,0.13787804445839041
136.386,-0.092526,0.061152,-0.142606,0.210516,idle,4,0.01999999999998181,0.13871496178102635
136.406,-0.064437,0.033046,-0.158787,0.175022,idle,4,0.020000000000010232,0.13924040239242533
136.426,-0.079667,0.045147,-0.125623,0.149047,idle,4,0.01999999999998181,0.1395045659345469
136.445,-0.139223,0.168175,0.02867,0.152873,idle,4,0.019000000000005457,0.13979739214254228
136.465,-0.142724,-0.015074,0.015131,0.119283,idle,4,0.020000000000010232,0.13934705826243343
136.485,-0.122725,0.088147,-0.163377,0.113056,idle,4,0.020000000000010232,0.1388178318984235
136.505,-0.138343,0.208081,-0.098079,0.132061,idle,4,0.01999999999998181,0.13881957938662098
136.525,-0.157777,0.083324,0.007467,0.122314,idle,4,0.020000000000010232,0.13880751643983524
136.545,-0.188793,-0.135699,0.125272,0.070711,idle,4,0.01999999999998181,0.13833973518990597
136.565,-0.151611,-0.090904,0.030054,0.038388,idle,4,0.020000000000010232,0.1376621438448174
136.585,-0.080656,0.126489,-0.160834,0.056008,idle,4,0.020000000000010232,0.13704861151267717
136.605,-0.104091,0.190341,-0.120474,0.082875,idle,4,0.01999999999998181,0.13661274891924402
136.624,-0.166928,-0.104545,0.01409,0.045391,idle,4,0.019000000000005457,0.13601275503212287
136.644,-0.21049,-0.221202,0.068043,-0.007928,idle,4,0.020000000000010232,0.1354287381363562
136.664,-0.276836,-0.008037,-0.034412,-0.00795,idle,4,0.01999999999998181,0.13500442501855406
136.684,-0.260895,0.201179,-0.115634,0.033876,idle,4,0.020000000000010232,0.1347357133054202
136.704,-0.230211,0.044698,-0.06534,0.036041,idle,4,0.020000000000010232,0.1345178217336335
136.724,-0.179287,-0.19025,-0.045097,-0.009217,idle,4,0.01999999999998181,0.1342639714836847
136.743,-0.149755,-0.158115,-0.098146,-0.038997,idle,4,0.019000000000005457,0.13408237245742108
136.763,-0.118804,0.083446,-0.156339,-0.014508,idle,4,0.020000000000010232,0.13388512116988366
136.783,-0.037652,0.331681,-0.126478,0.05473,idle,4,0.01999999999998181,0.13384655276430116
136.803,0.122514,0.314498,-0.049665,0.106683,idle,4,0.020000000000010232,0.13418140487512534
136.823,0.253857,0.132228,0.05523,0.111792,idle,4,0.020000000000010232,0.13459826706792088
136.843,0.258653,0.076582,0.085452,0.10475,idle,4,0.01999999999998181,0.13499444061776586
136.863,0.194876,0.204124,0.073534,0.124625,idle,4,0.020000000000010232,0.13559876647464808
136.883,0.080011,0.090396,0.189316,0.117779,idle,4,0.020000000000010232,0.13615083472565456
136.903,0.093498,-0.142201,0.284976,0.065783,idle,4,0.01999999999998181,0.13633263862778355
136.922,0.170593,-0.130841,0.343204,0.026458,idle,4,0.019000000000005457,0.1363697549314666
136.942,0.207641,0.046813,0.252266,0.030529,idle,4,0.020000000000010232,0.1364159526900032
136.962,0.237056,0.038217,0.224168,0.032067,idle,4,0.01999999999998181,0.13644938775186854
136.982,0.249848,-0.044795,0.272168,0.016694,idle,4,0.020000000000010232,0.1364250385422031
137.002,0.226582,0.004523,0.265245,0.01426,idle,4,0.020000000000010232,0.13639327595553974
137.022,0.187023,0.067286,0.227986,0.024865,idle,4,0.01999999999998181,0.1363998707947701
137.042,0.144175,0.114314,0.224859,0.042755,idle,4,0.020000000000010232,0.13646983338678423
137.061,0.102905,0.083384,0.270129,0.050881,idle,4,0.019000000000005457,0.13657112005686245
137.081,0.095118,0.045432,0.285646,0.049791,idle,4,0.01999999999998181,0.1366627229096452
137.101,0.092177,0.052993,0.264685,0.050431,idle,4,0.020000000000010232,0.1367509420378831
137.121,0.086762,0.07883,0.229435,0.056111,idle,4,0.020000000000010232,0.13685216470465003
137.141,0.082937,0.096166,0.211976,0.064122,idle,4,0.01999999999998181,0.136985530110395
137.161,0.06526,0.074227,0.243751,0.066143,idle,4,0.020000000000010232,0.137120532197388
137.181,0.045896,0.057869,0.259034,0.064488,idle,4,0.020000000000010232,0.13723185604311397
137.201,0.043604,0.059581,0.237063,0.063507,idle,4,0.01999999999998181,0.13730355173695766
137.22,0.056054,0.102677,0.161623,0.071341,idle,4,0.019000000000005457,0.13735181279556619
137.241,0.048556,0.109784,0.130425,0.079029,idle,4,0.021000000000015007,0.13737358725879392
137.26,0.05021,0.086108,0.118781,0.080445,idle,4,0.018999999999977035,0.13730352625032508
137.28,0.041963,0.040686,0.136682,0.072493,idle,4,0.020000000000010232,0.13706653198142618
137.302,0.03052,0.00083,0.153336,0.058161,idle,4,0.02199999999999136,0.13654824470487895
137.32,0.009564,-0.015479,0.161557,0.043433,idle,4,0.018000000000000682,0.1357927740863286
137.34,-0.007635,-0.035567,0.182831,0.027633,idle,4,0.020000000000010232,0.1347772532411694
137.36,-0.012651,-0.0722,0.206194,0.007666,idle,4,0.020000000000010232,0.13340080307794086
137.379,-0.005823,-0.106236,0.201133,-0.015114,idle,4,0.018999999999977035,0.13154008632506872
137.4,0.030505,-0.124097,0.166954,-0.036911,idle,4,0.021000000000015007,0.12929783249464702
137.42,0.071005,0.005502,0.068802,-0.028428,idle,4,0.01999999999998181,0.1268085181274681
137.439,0.069523,0.059218,0.011343,-0.010899,idle,4,0.019000000000005457,0.12398148971688533
137.459,0.066614,-0.003347,0.030113,-0.009388,idle,4,0.020000000000010232,0.12079329776209809
137.479,0.067215,-0.056052,0.065426,-0.018721,idle,4,0.020000000000010232,0.11726289461044945
137.499,0.086866,-0.095743,0.089556,-0.034125,idle,4,0.01999999999998181,0.11353495252901288
137.519,0.108995,-0.08985,0.080779,-0.04527,idle,4,0.020000000000010232,0.10949802658911374
137.538,0.115774,-0.042698,0.040785,-0.044756,idle,4,0.019000000000005457,0.10575149256925839
137.558,0.131089,0.026643,-0.009422,-0.030476,idle,4,0.01999999999998181,0.10229464308127384
137.578,0.148762,0.090416,-0.039128,-0.006298,idle,4,0.020000000000010232,0.09947937572759273
137.598,0.139434,0.108621,-0.075229,0.016686,idle,4,0.020000000000010232,0.09724049048973371
137.618,0.107495,0.105113,-0.089683,0.034371,idle,4,0.01999999999998181,0.09571821336280587
137.638,0.093986,0.118066,-0.078829,0.05111,idle,4,0.020000000000010232,0.09491142204637065
137.658,0.074619,0.130322,-0.075754,0.066953,idle,4,0.01999999999998181,0.09467284480939125
137.678,0.020943,0.12676,-0.078222,0.078914,idle,4,0.020000000000010232,0.09461601061007172
137.698,-0.017669,0.116801,-0.079305,0.086492,idle,4,0.020000000000010232,0.09440335058522883
137.717,-0.018029,0.111793,-0.067383,0.091552,idle,4,0.019000000000005457,0.09380109568678589
137.737,-0.012381,0.11222,-0.081154,0.095685,idle,4,0.01999999999998181,0.09295665012538305
137.757,-0.013612,0.123592,-0.059122,0.101267,idle,4,0.020000000000010232,0.09206627887847393
137.777,-0.008686,0.141274,-0.056005,0.109268,idle,4,0.01999999999998181,0.09121650369860447
137.797,-0.020131,0.142404,-0.059227,0.115895,idle,4,0.020000000000010232,0.09039599257168511
137.817,-0.026245,0.139044,-0.072985,0.120525,idle,4,0.020000000000010232,0.08953584166705209
137.837,-0.036787,0.129265,-0.078304,0.122273,idle,4,0.01999999999998181,0.08875570083719161
137.856,-0.048013,0.110396,-0.066237,0.119898,idle,4,0.019000000000005457,0.08820375988595862
137.876,-0.043158,0.090469,-0.044124,0.114012,idle,4,0.020000000000010232,0.08779456605310879
137.9,-0.016877,0.059318,-0.012482,0.103073,idle,4,0.02400000000000091,0.08723030507524114
137.916,-0.00466,0.0329,0.006953,0.089039,idle,4,0.015999999999991132,0.08639353746271043
137.936,-0.001329,0.027444,-0.003976,0.07672,idle,4,0.020000000000010232,0.08554739197870397
137.956,0.01498,0.023697,-0.018293,0.066115,idle,4,0.01999999999998181,0.08488126751184931
137.976,0.034369,0.014867,-0.011951,0.055866,idle,4,0.020000000000010232,0.08434681101975322
137.996,0.044835,-0.001179,0.007396,0.044457,idle,4,0.020000000000010232,0.08378708819774386
138.016,0.040853,-0.014722,0.028461,0.032621,idle,4,0.01999999999998181,0.08310880118537776
138.035,0.037839,-0.022606,0.026126,0.021576,idle,4,0.019000000000005457,0.0825413947363146
138.055,0.044008,-0.031029,0.018779,0.011055,idle,4,0.020000000000010232,0.08228345322195059
138.075,0.047597,-0.04978,0.015803,-0.001112,idle,4,0.01999999999998181,0.0822362925144468
138.096,0.042937,-0.072754,0.041287,-0.015441,idle,4,0.021000000000015007,0.08231993117574526
138.115,0.02727,-0.078976,0.061201,-0.028148,idle,4,0.019000000000005457,0.08279856716845975
138.135,0.015188,-0.061097,0.0397,-0.034738,idle,4,0.01999999999998181,0.08331633486759567
138.154,0.021046,-0.072158,0.022239,-0.042222,idle,4,0.019000000000005457,0.08384269705034784
138.174,0.031868,-0.109254,0.032234,-0.055628,idle,4,0.020000000000010232,0.08474950141902235
138.195,0.029188,-0.135981,0.049618,-0.071699,idle,4,0.020999999999986585,0.08566942434048122
138.214,0.021871,-0.141583,0.053753,-0.085676,idle,4,0.019000000000005457,0.085026387455776
138.234,0.021949,-0.138831,0.056566,-0.096307,idle,4,0.020000000000010232,0.08294988223917729
138.254,0.029553,-0.109725,0.070862,-0.09899,idle,4,0.01999999999998181,0.08043359047482065
138.274,0.039982,-0.078991,0.082069,-0.094991,idle,4,0.020000000000010232,0.07773060853807166
138.294,0.025105,-0.066543,0.082883,-0.089301,idle,4,0.020000000000010232,0.07459812439813177
138.313,0.005984,-0.057266,0.073145,-0.082894,idle,4,0.018999999999977035,0.07166677224000366
138.333,0.000741,-0.054092,0.056184,-0.077134,idle,4,0.020000000000010232,0.06895558986563183
138.353,0.006319,-0.052503,0.050937,-0.072208,idle,4,0.020000000000010232,0.06667413918475314
138.373,0.017195,-0.05388,0.057155,-0.068542,idle,4,0.01999999999998181,0.06522029725685
138.393,0.007224,-0.053287,0.058684,-0.065491,idle,4,0.020000000000010232,0.06445630141479737
138.413,0.001079,-0.04591,0.045887,-0.061575,idle,4,0.020000000000010232,0.06407173854798441
138.433,0.001454,-0.028125,0.02824,-0.054885,idle,4,0.01999999999998181,0.06344749147574
138.452,0.005187,-0.020928,0.017762,-0.048094,idle,4,0.019000000000005457,0.0632488654047409
138.472,0.012714,-0.017496,0.024473,-0.041974,idle,4,0.020000000000010232,0.06302562134696388
138.492,0.021226,-0.007644,0.022044,-0.035108,idle,4,0.01999999999998181,0.06239155305818071
138.512,0.024956,0.005306,0.00845,-0.027025,idle,4,0.020000000000010232,0.06180129699791262
138.532,0.037429,0.009997,0.005099,-0.019621,idle,4,0.020000000000010232,0.06175112616619305
138.552,0.036903,0.012378,0.010085,-0.013221,idle,4,0.01999999999998181,0.06182583509767507
138.572,0.025024,0.010227,0.012126,-0.008531,idle,4,0.020000000000010232,0.06179545255867356
138.592,0.009568,0.002536,0.017782,-0.006318,idle,4,0.020000000000010232,0.06152969127140167
138.612,-0.014834,0.000771,0.011956,-0.0049,idle,4,0.01999999999998181,0.06152264192541139
138.631,-0.022051,0.009667,0.004104,-0.001987,idle,4,0.019000000000005457,0.06149910314353416
138.651,-0.019554,0.009354,0.007576,0.000281,idle,4,0.020000000000010232,0.06146789941764186
138.671,-0.030779,-0.004957,0.020125,-0.000766,idle,4,0.01999999999998181,0.061482435525021674
138.691,-0.059759,-0.023424,0.030085,-0.005298,idle,4,0.020000000000010232,0.06150523319505622
138.711,-0.093322,-0.040189,0.024393,-0.012276,idle,4,0.020000000000010232,0.061519927740834826
138.731,-0.109141,-0.044827,0.017748,-0.018786,idle,4,0.01999999999998181,0.06136215117732388
138.751,-0.095165,-0.044109,0.022482,-0.023851,idle,4,0.020000000000010232,0.06142029995739295
138.771,-0.055476,-0.041714,0.022926,-0.027424,idle,4,0.01999999999998181,0.06148156095382708
138.791,-0.008952,-0.024455,0.011858,-0.02683,idle,4,0.020000000000010232,0.0609790457808839
138.81,0.024238,-0.013289,-0.017911,-0.024122,idle,4,0.019000000000005457,0.06034375243541229
138.83,0.029669,-0.023013,-0.038124,-0.0239,idle,4,0.020000000000010232,0.05978157574252334
138.85,0.005589,-0.023478,-0.060175,-0.023815,idle,4,0.01999999999998181,0.0588373545469998
138.87,-0.004244,-0.022661,-0.0874,-0.023584,idle,4,0.020000000000010232,0.05796963937750122
138.89,4.1e-05,-0.028647,-0.105587,-0.024597,idle,4,0.01999999999998181,0.05780965120516289
138.91,0.006848,-0.043295,-0.109787,-0.028337,idle,4,0.020000000000010232,0.05791163854811693
138.929,0.016113,-0.064561,-0.092711,-0.035581,idle,4,0.019000000000005457,0.05804574547156721
138.95,0.021599,-0.080495,-0.082276,-0.044564,idle,4,0.020999999999986585,0.058240810179210886
138.969,0.024311,-0.08811,-0.08498,-0.053273,idle,4,0.019000000000005457,0.05855498579427152
138.989,0.02329,-0.106128,-0.07562,-0.063844,idle,4,0.020000000000010232,0.05898084498401794
139.009,0.027173,-0.125697,-0.063026,-0.076215,idle,4,0.01999999999998181,0.05952723578755814
139.029,0.029116,-0.13628,-0.059973,-0.088228,idle,4,0.020000000000010232,0.0601377867087259
139.048,0.03286,-0.138042,-0.060068,-0.098191,idle,4,0.019000000000005457,0.0608132718365708
139.068,0.05542,-0.123641,-0.065976,-0.103281,idle,4,0.020000000000010232,0.061538854614149124
139.088,0.065342,-0.126977,-0.071121,-0.10802,idle,4,0.01999999999998181,0.062293670627852585
139.108,0.070139,-0.144422,-0.055263,-0.115301,idle,4,0.020000000000010232,0.06307676732030798
139.128,0.083529,-0.165149,-0.034528,-0.12527,idle,4,0.01999999999998181,0.06390615999966434
139.148,0.134197,-0.176385,-0.026683,-0.135493,idle,4,0.020000000000010232,0.06484493663197241
139.168,0.170836,-0.18187,-0.024757,-0.144769,idle,4,0.020000000000010232,0.06591450911130121
139.188,0.148108,-0.19357,-0.01249,-0.154529,idle,4,0.01999999999998181,0.06711700101001954
139.208,0.09328,-0.212973,0.019685,-0.166218,idle,4,0.020000000000010232,0.06839080963014801
139.227,0.068827,-0.224559,0.053664,-0.177886,idle,4,0.019000000000005457,0.06972427399260557
139.247,0.082613,-0.217615,0.085355,-0.185832,idle,4,0.020000000000010232,0.07110449037643546
139.267,0.112858,-0.211015,0.10448,-0.190868,idle,4,0.01999999999998181,0.07258481568767752
139.287,0.146469,-0.204238,0.123568,-0.193542,idle,4,0.020000000000010232,0.07417538921115235
139.307,0.180173,-0.180464,0.141588,-0.190927,idle,4,0.01999999999998181,0.07573972179011566
139.327,0.197519,-0.14808,0.158867,-0.182357,idle,4,0.020000000000010232,0.07715274907538011
139.347,0.158974,-0.106772,0.171003,-0.16724,idle,4,0.020000000000010232,0.07832152628827486
139.367,0.087146,-0.074992,0.169385,-0.148791,idle,4,0.01999999999998181,0.07921378425047237
139.387,0.019756,-0.05303,0.150602,-0.129638,idle,4,0.020000000000010232,0.07982908288346949
139.406,-0.037294,-0.018024,0.12332,-0.107316,idle,4,0.019000000000005457,0.08018741797605626
139.426,-0.086016,0.018513,0.097607,-0.08215,idle,4,0.01999999999998181,0.08031190535850283
139.446,-0.116995,0.057557,0.085638,-0.054209,idle,4,0.020000000000010232,0.0803038684244476
139.466,-0.119735,0.103143,0.098082,-0.022738,idle,4,0.020000000000010232,0.08029743153179947
139.486,-0.096318,0.146705,0.112552,0.01115,idle,4,0.01999999999998181,0.0804213497385375
139.509,-0.051721,0.181665,0.138282,0.045253,idle,4,0.022999999999996135,0.08079086627894896
139.526,0.009616,0.213558,0.158921,0.078914,idle,4,0.01700000000002433,0.08153872204723933
139.545,0.069691,0.25145,0.173931,0.113421,idle,4,0.018999999999977035,0.08280604414157365
139.565,0.113389,0.289827,0.173476,0.148703,idle,4,0.020000000000010232,0.08467352312405323
139.585,0.115864,0.322507,0.179205,0.183463,idle,4,0.020000000000010232,0.08716643691445751
139.605,0.085393,0.356817,0.18003,0.218134,idle,4,0.01999999999998181,0.09033646073005913
139.625,0.041707,0.383067,0.157102,0.251121,idle,4,0.020000000000010232,0.09415851061011334
139.645,0.017151,0.407691,0.126655,0.282435,idle,4,0.020000000000010232,0.09858557501239891
139.665,0.017785,0.41398,0.108742,0.308744,idle,4,0.01999999999998181,0.10347815878495968
139.684,0.010778,0.41012,0.100991,0.329019,idle,4,0.019000000000005457,0.10866287758945732
139.705,-0.016842,0.397512,0.076687,0.342718,idle,4,0.021000000000015007,0.11393752055518766
139.724,-0.012742,0.401659,0.034394,0.354506,idle,4,0.018999999999977035,0.11924752268243331
139.744,0.026487,0.39949,-0.009402,0.363503,idle,4,0.020000000000010232,0.12449633661317541
139.764,0.03722,0.370624,-0.017222,0.364927,idle,4,0.020000000000010232,0.1294510794067227
139.784,0.023626,0.334316,-0.011818,0.358805,idle,4,0.01999999999998181,0.13394807570846992
139.804,0.006842,0.302535,-0.021675,0.347551,idle,4,0.020000000000010232,0.13792450844518545
139.824,-0.009387,0.266477,-0.041639,0.331336,idle,4,0.020000000000010232,0.14134693023560846
139.843,-0.025506,0.230259,-0.071157,0.311121,idle,4,0.018999999999977035,0.14422833955458508
139.863,-0.037097,0.194467,-0.117116,0.28779,idle,4,0.020000000000010232,0.14660120172633656
139.883,-0.036786,0.164565,-0.128639,0.263145,idle,4,0.020000000000010232,0.14854174104198392
139.903,-0.028481,0.147152,-0.138796,0.239946,idle,4,0.01999999999998181,0.15014359115930925
139.923,-0.021733,0.139386,-0.16007,0.219834,idle,4,0.020000000000010232,0.15147840438099347
139.943,-0.007466,0.11712,-0.190432,0.199291,idle,4,0.020000000000010232,0.15256061430099394
139.963,-0.006558,0.074929,-0.185136,0.174419,idle,4,0.01999999999998181,0.1533707091261712
139.983,-0.031496,0.042187,-0.157187,0.147972,idle,4,0.020000000000010232,0.15393851581873594
140.003,-0.058584,0.026893,-0.149129,0.123756,idle,4,0.01999999999998181,0.15432339598940595
140.025,-0.05402,0.022156,-0.142484,0.103436,idle,4,0.02200000000001978,0.15457980020346576
140.042,-0.003447,0.018567,-0.111311,0.086462,idle,4,0.016999999999995907,0.15474409395820285
140.062,0.083803,0.031098,-0.071517,0.07539,idle,4,0.020000000000010232,0.1548488321379432
140.082,0.164625,0.074627,-0.051563,0.075237,idle,4,0.01999999999998181,0.15492514244969485
140.102,0.16663,0.109414,-0.086024,0.082072,idle,4,0.020000000000010232,0.15498954474283605
140.122,0.040115,0.107007,-0.152861,0.087059,idle,4,0.020000000000010232,0.1550451161792526
140.141,-0.103878,0.092001,-0.20343,0.088048,idle,4,0.018999999999977035,0.15506628370854625
140.161,-0.182414,0.059192,-0.191528,0.082277,idle,4,0.020000000000010232,0.1549904918536633
140.181,-0.169172,0.031758,-0.094461,0.072173,idle,4,0.020000000000010232,0.15477532801042615
140.201,-0.09188,-0.018795,0.029281,0.053979,idle,4,0.01999999999998181,0.15440635837588484
140.221,-0.032667,-0.053322,0.123238,0.032519,idle,4,0.020000000000010232,0.15391828293726748
140.241,0.015456,-0.077285,0.17709,0.010558,idle,4,0.020000000000010232,0.15340457604133645
140.261,0.040219,-0.108355,0.193683,-0.013224,idle,4,0.01999999999998181,0.15296145550211304
140.281,0.001825,-0.115435,0.188643,-0.033666,idle,4,0.020000000000010232,0.15262953252712147
140.301,-0.034445,-0.104152,0.163938,-0.047763,idle,4,0.01999999999998181,0.15240955704108936
140.32,-0.037231,-0.082901,0.130749,-0.054791,idle,4,0.019000000000005457,0.15226812366751424
140.34,-0.015997,-0.078539,0.093734,-0.059541,idle,4,0.020000000000010232,0.1521878087520016
140.36,0.00471,-0.084102,0.066751,-0.064453,idle,4,0.020000000000010232,0.15216168161094923
140.38,0.020264,-0.092265,0.039051,-0.070015,idle,4,0.01999999999998181,0.15219096429587084
140.4,0.032255,-0.102485,0.022903,-0.076509,idle,4,0.020000000000010232,0.15228876869710506
140.42,0.046303,-0.127217,0.031726,-0.086651,idle,4,0.01999999999998181,0.152499739433306
140.44,0.068415,-0.172139,0.042113,-0.103748,idle,4,0.020000000000010232,0.15288599938908584
140.459,0.075378,-0.206731,0.062843,-0.124345,idle,4,0.019000000000005457,0.15349140199838807
140.479,0.066828,-0.246315,0.089906,-0.148739,idle,4,0.020000000000010232,0.15438054172736115
140.499,0.06532,-0.273402,0.110506,-0.173672,idle,4,0.01999999999998181,0.15558834704935318
140.519,0.073845,-0.290908,0.107859,-0.197119,idle,4,0.020000000000010232,0.1571108806094165
140.539,0.083008,-0.297029,0.09127,-0.217101,idle,4,0.01999999999998181,0.15890501491134704
140.559,0.080157,-0.299304,0.073672,-0.233542,idle,4,0.020000000000010232,0.16091458159419084
140.579,0.077212,-0.285962,0.063832,-0.244026,idle,4,0.020000000000010232,0.16303747093550122
140.601,0.074962,-0.249811,0.046552,-0.245183,idle,4,0.02199999999999136,0.16511858235149715
140.618,0.07638,-0.226559,0.014194,-0.241458,idle,4,0.016999999999995907,0.16708412933067418
140.638,0.088701,-0.216489,0.012413,-0.236464,idle,4,0.020000000000010232,0.16891974203888932
140.658,0.08983,-0.22221,0.049814,-0.233613,idle,4,0.01999999999998181,0.1706610949521887
140.678,0.077844,-0.22333,0.088853,-0.231557,idle,4,0.020000000000010232,0.1723222994973694
140.698,0.066788,-0.207924,0.099341,-0.22683,idle,4,0.020000000000010232,0.17386946247194443
140.718,0.05149,-0.187473,0.084544,-0.218959,idle,4,0.01999999999998181,0.17526884126609835
140.738,0.052342,-0.167634,0.065407,-0.208694,idle,4,0.020000000000010232,0.1765033394955955
140.758,0.055608,-0.133619,0.041249,-0.193679,idle,4,0.020000000000010232,0.17753565826877496
140.778,0.046958,-0.110978,0.005835,-0.177139,idle,4,0.01999999999998181,0.17837745461976504
140.797,0.045516,-0.092148,-0.003383,-0.16014,idle,4,0.019000000000005457,0.179049231032724
140.817,0.052525,-0.080042,0.014426,-0.144121,idle,4,0.020000000000010232,0.17957733082773591
140.837,0.049414,-0.074416,0.031463,-0.13018,idle,4,0.01999999999998181,0.1799946565389883
140.857,0.036,-0.063469,0.023398,-0.116838,idle,4,0.020000000000010232,0.18031908553352902
140.877,0.016992,-0.049061,-0.005977,-0.103282,idle,4,0.020000000000010232,0.18056098833216452
140.897,0.005088,-0.032643,-0.031963,-0.089155,idle,4,0.01999999999998181,0.1807277170268337
140.917,0.001504,-0.014114,-0.041211,-0.074146,idle,4,0.020000000000010232,0.1808239266454058
140.936,-0.012601,0.000566,-0.042481,-0.059204,idle,4,0.019000000000005457,0.18085778253415635
140.956,-0.038772,-0.003908,-0.034908,-0.048145,idle,4,0.01999999999998181,0.18084627460997568
140.976,-0.051244,-0.008823,-0.0182,-0.04028,idle,4,0.020000000000010232,0.1807914142490684
140.996,-0.051548,-0.008609,-0.004177,-0.033946,idle,4,0.020000000000010232,0.18068505386335532
141.016,-0.051792,0.027085,-0.043458,-0.02174,idle,4,0.01999999999998181,0.18051596094151776
141.036,-0.040569,0.058552,-0.097164,-0.005681,idle,4,0.020000000000010232,0.18029210237345275
141.056,-0.022191,0.079033,-0.140198,0.011261,idle,4,0.020000000000010232,0.18004597539620618
141.076,-0.003251,0.079608,-0.148866,0.024931,idle,4,0.01999999999998181,0.1797839829045252
141.096,0.013467,0.064479,-0.13612,0.03284,idle,4,0.020000000000010232,0.17948250719548392
141.115,0.026172,0.047469,-0.104256,0.035766,idle,4,0.019000000000005457,0.17910819881618187
141.135,0.038507,0.012552,-0.074777,0.031123,idle,4,0.01999999999998181,0.17863465164764286
141.155,0.08435,-0.015835,-0.059656,0.021732,idle,4,0.020000000000010232,0.1780563125475771
141.175,0.16198,-0.051789,-0.041108,0.007028,idle,4,0.020000000000010232,0.17736575616704664
141.196,0.23769,-0.069527,-0.017903,-0.008283,idle,4,0.020999999999986585,0.17655170634657866
141.215,0.208317,-0.089496,-0.009582,-0.024526,idle,4,0.019000000000005457,0.17562085697401814
141.234,0.144771,-0.10786,-0.014473,-0.041193,idle,4,0.019000000000005457,0.17462300619007376
141.254,0.084376,-0.121051,-0.016976,-0.057164,idle,4,0.01999999999998181,0.17360298198216104
141.274,0.025582,-0.102755,-0.013745,-0.066282,idle,4,0.020000000000010232,0.172572891657695
141.294,-0.028946,-0.102463,-0.016661,-0.073519,idle,4,0.020000000000010232,0.171592638423943
141.314,-0.096243,-0.08881,-0.004191,-0.076577,idle,4,0.01999999999998181,0.17071491368652927
141.334,-0.127378,-0.018227,0.007411,-0.064907,idle,4,0.020000000000010232,0.16993663011802115
141.354,-0.142469,0.070571,0.006685,-0.037811,idle,4,0.020000000000010232,0.16923237670333965
141.374,-0.16164,0.186184,-0.010226,0.006988,idle,4,0.01999999999998181,0.16861310547032551
141.394,-0.170257,0.210056,0.001434,0.047602,idle,4,0.020000000000010232,0.16818761051548692
141.413,-0.162592,0.205562,0.008657,0.079194,idle,4,0.019000000000005457,0.16800347420060446
141.433,-0.1857,0.247017,-0.006191,0.112758,idle,4,0.01999999999998181,0.16810502128448307
141.453,-0.216852,0.399179,-0.026165,0.170042,idle,4,0.020000000000010232,0.16871434604605326
141.473,-0.276189,0.437377,6.3e-05,0.223509,idle,4,0.020000000000010232,0.16990967080326766
141.493,-0.307785,0.421055,0.03563,0.263018,idle,4,0.01999999999998181,0.17157163269934433
141.513,-0.294098,0.445782,0.012767,0.299571,idle,4,0.020000000000010232,0.1736623630113459
141.533,-0.277988,0.444349,0.009854,0.328527,idle,4,0.01999999999998181,0.17604167989420968
141.552,-0.249695,0.39903,0.030771,0.342627,idle,4,0.019000000000005457,0.1784082785312964
141.572,-0.228805,0.369648,0.100019,0.348031,idle,4,0.020000000000010232,0.1805607304053547
141.593,-0.21231,0.406397,0.108735,0.359705,idle,4,0.020999999999986585,0.18256167074039714
141.612,-0.179925,0.507431,0.057957,0.38925,idle,4,0.019000000000005457,0.18471878431206532
141.632,-0.126839,0.426068,0.102159,0.396613,idle,4,0.020000000000010232,0.18659479127516898
141.652,-0.081378,0.329718,0.207885,0.383234,idle,4,0.01999999999998181,0.18783072251397223
141.672,-0.036625,0.301096,0.267669,0.366807,idle,4,0.020000000000010232,0.18845735850426346
141.692,-0.001038,0.273793,0.284191,0.348204,idle,4,0.020000000000010232,0.18854737513619518
141.711,0.036487,0.232992,0.263171,0.325162,idle,4,0.019000000000005457,0.1880740654509121
141.731,0.084107,0.208859,0.283538,0.301901,idle,4,0.01999999999998181,0.18709875674004123
141.751,0.108513,0.158613,0.332814,0.273244,idle,4,0.020000000000010232,0.18570179910260584
141.771,0.126259,0.081637,0.397256,0.234922,idle,4,0.01999999999998181,0.18394124961431788
141.791,0.144777,0.177703,0.391594,0.223478,idle,4,0.020000000000010232,0.18223048413427223
141.811,0.195806,0.274281,0.289598,0.233639,idle,4,0.020000000000010232,0.1808824794208225
141.831,0.214048,0.170116,0.355656,0.220934,idle,4,0.01999999999998181,0.1797078116718581
141.85,0.193364,0.02632,0.392705,0.182011,idle,4,0.019000000000005457,0.1785007482332801
141.87,0.156666,-0.093749,0.467174,0.126859,idle,4,0.020000000000010232,0.17723418146825648
141.89,0.131671,-0.149589,0.406256,0.07157,idle,4,0.01999999999998181,0.17602162264627008
141.91,0.121872,-0.221851,0.354168,0.012886,idle,4,0.020000000000010232,0.17496859824228211
141.93,0.110155,-0.304972,0.386325,-0.050686,idle,4,0.020000000000010232,0.17426535963489684
141.95,0.126787,-0.343604,0.366579,-0.10927,idle,4,0.01999999999998181,0.17410788112868655
141.97,0.143456,-0.307666,0.290649,-0.148949,idle,4,0.020000000000010232,0.17446216112527713
141.99,0.157846,-0.31217,0.241832,-0.181593,idle,4,0.020000000000010232,0.17527361894302718
142.01,0.162697,-0.245568,0.177291,-0.194388,idle,4,0.01999999999998181,0.17629270749353892
142.029,0.236109,-0.141384,0.041606,-0.183787,idle,4,0.019000000000005457,0.17721770065829678
142.049,0.328164,-0.252465,0.00843,-0.197523,idle,4,0.020000000000010232,0.17829679279505753
142.069,0.375559,-0.32579,0.103948,-0.223176,idle,4,0.01999999999998181,0.1796379399753623
142.089,0.421713,0.037213,-0.401088,-0.171099,idle,4,0.020000000000010232,0.18031165719239656
142.109,0.512415,0.105684,-0.620939,-0.115742,idle,4,0.020000000000010232,0.18048156481509742
142.129,0.185277,-0.139504,-0.184505,-0.120495,idle,4,0.01999999999998181,0.18065407917301216
142.149,-0.137907,-0.143817,0.233739,-0.125159,idle,4,0.020000000000010232,0.18086186780328958
142.168,-0.160079,0.192882,0.206247,-0.061551,idle,4,0.019000000000005457,0.18078319103826615
142.189,0.01185,0.257725,-0.079963,0.002304,idle,4,0.020999999999986585,0.18068415993774897
142.208,0.170903,-0.141671,-0.142981,-0.026491,idle,4,0.019000000000005457,0.1806521056861009
142.228,0.149916,-0.174718,0.097322,-0.056136,idle,4,0.020000000000010232,0.18070974420286862
142.248,-0.004059,0.004432,0.234712,-0.044023,idle,4,0.01999999999998181,0.18074555881863055
142.268,-0.018699,0.1013,0.055901,-0.014958,idle,4,0.020000000000010232,0.18072837644445022
142.288,0.033765,-0.008524,-0.195697,-0.013671,idle,4,0.020000000000010232,0.18068435052270174
142.309,0.002524,-0.062577,-0.224725,-0.023452,idle,4,0.020999999999986585,0.18062856855058637
142.327,0.016309,0.025794,-0.047682,-0.013603,idle,4,0.018000000000000682,0.18055232918539674
142.347,-0.017837,0.059033,0.089119,0.000924,idle,4,0.020000000000010232,0.1804593295603017
142.367,0.014573,0.144743,-0.046146,0.029688,idle,4,0.01999999999998181,0.18037758178164795
142.387,0.136678,0.093977,-0.175292,0.042546,idle,4,0.020000000000010232,0.18029384757072048
142.407,0.185756,0.160766,0.057807,0.06619,idle,4,0.020000000000010232,0.18023248281209484
142.427,0.912,-0.366715,-0.153315,-0.020391,idle,4,0.01999999999998181,0.17995109727415434
142.447,-0.062858,0.038571,0.05451,-0.008599,idle,4,0.020000000000010232,0.17952449490832312
142.467,-0.398375,0.306082,-0.109191,0.054337,idle,4,0.020000000000010232,0.1789762747099011
142.487,-0.045008,0.141269,-0.077289,0.071724,idle,4,0.01999999999998181,0.17822791882212252
142.506,0.231457,-0.123491,-0.178523,0.032681,idle,4,0.019000000000005457,0.17708410837149025
142.526,0.157821,-0.096638,-0.115698,0.006817,idle,4,0.020000000000010232,0.17563831524684223
142.546,-0.039729,0.016676,-0.070999,0.008789,idle,4,0.01999999999998181,0.17392552854467508
142.566,-0.0409,-0.056529,-0.044934,-0.004275,idle,4,0.020000000000010232,0.1720146332408328
142.586,0.046985,-0.054564,-0.105924,-0.014332,idle,4,0.020000000000010232,0.1700452747483147
142.606,-0.018383,-0.077845,-0.091903,-0.027035,idle,4,0.01999999999998181,0.16810890930134104
142.626,-0.031589,-0.07973,-0.017803,-0.037574,idle,4,0.020000000000010232,0.16623418914542218
142.646,-0.036244,-0.100036,0.017013,-0.050066,idle,4,0.01999999999998181,0.16440922804548616
142.665,-0.082837,0.000856,-0.02653,-0.039882,idle,4,0.019000000000005457,0.16253213636159056
142.685,0.02346,0.012687,-0.155511,-0.029368,idle,4,0.020000000000010232,0.16064590061298548
142.705,0.062018,-0.114935,-0.116595,-0.046481,idle,4,0.020000000000010232,0.1589090860409935
142.725,0.065845,-0.045476,0.003541,-0.04628,idle,4,0.01999999999998181,0.15729319810820652
142.745,0.094043,-0.033896,0.052151,-0.043804,idle,4,0.020000000000010232,0.15585699083569368
142.765,0.155279,-0.0143,-0.038838,-0.037903,idle,4,0.01999999999998181,0.15459972259088736
142.785,0.011252,0.005121,-0.100229,-0.029298,idle,4,0.020000000000010232,0.15350748487916938
142.804,0.039444,0.034875,-0.050217,-0.016463,idle,4,0.019000000000005457,0.15254535089455515
142.824,-0.084425,0.12107,-0.120577,0.011043,idle,4,0.020000000000010232,0.15165625189843124
142.844,-0.24844,0.213324,-0.162212,0.051499,idle,4,0.01999999999998181,0.15087557339463242
142.864,-0.359521,0.286396,-0.132216,0.098479,idle,4,0.020000000000010232,0.1503203021135452
142.884,-0.362052,0.164552,-0.011266,0.111693,idle,4,0.01999999999998181,0.1499233309237261
142.904,-0.501483,0.221394,0.153428,0.133633,idle,4,0.020000000000010232,0.14974203026217964
142.924,0.230001,-0.278233,-0.080008,0.05126,idle,4,0.020000000000010232,0.14938206537843962
142.943,0.21656,-0.131592,-0.071586,0.01469,idle,4,0.019000000000005457,0.14911895155098928
142.963,-0.075149,-0.019858,0.011355,0.00778,idle,4,0.01999999999998181,0.14891714152224786
142.983,-0.047198,0.005787,0.113581,0.007382,idle,4,0.020000000000010232,0.14875045634242887
143.003,0.095658,0.079202,-0.014933,0.021746,idle,4,0.01999999999998181,0.14861288324617022
143.023,0.044259,-0.042063,-0.10078,0.008984,idle,4,0.020000000000010232,0.14856781382414833
143.043,-0.079382,-0.080956,0.095248,-0.009004,idle,4,0.020000000000010232,0.14863077164534716
143.063,-0.257056,-0.044738,0.060233,-0.016151,idle,4,0.01999999999998181,0.14874836631608246
143.083,-0.143083,0.045445,-0.095592,-0.003832,idle,4,0.020000000000010232,0.14882712051602875
143.103,0.079663,0.005055,-0.158568,-0.002054,idle,4,0.020000000000010232,0.14890130675987232
143.122,0.117134,-0.080443,-0.025896,-0.017732,idle,4,0.019000000000005457,0.1490292973355657
143.142,0.120736,0.009986,-0.019816,-0.012189,idle,4,0.01999999999998181,0.1491215689654911
143.162,0.089251,-0.18112,0.099352,-0.045975,idle,4,0.020000000000010232,0.14935101141473114
143.182,-0.151064,-0.100454,0.162053,-0.056871,idle,4,0.01999999999998181,0.14960235957987486
143.202,-0.219367,-0.027903,0.145956,-0.051077,idle,4,0.020000000000010232,0.14974821519957762
143.222,-0.167531,0.202928,0.038618,-0.000276,idle,4,0.020000000000010232,0.14957035147654799
143.242,-0.083467,0.101351,0.039364,0.020049,idle,4,0.01999999999998181,0.14924242415387007
143.261,-0.058591,-0.018861,0.082185,0.012267,idle,4,0.019000000000005457,0.14885889993606316
143.281,-0.057026,-0.030303,0.053238,0.003753,idle,4,0.020000000000010232,0.14843514215778394
143.301,-0.018608,0.043293,-0.010993,0.011661,idle,4,0.01999999999998181,0.1479593859873535
143.321,0.070928,0.03394,-0.039144,0.016117,idle,4,0.020000000000010232,0.14756120616537027
143.341,0.133303,0.029962,-0.067924,0.018886,idle,4,0.020000000000010232,0.1473373135209891
143.361,0.16397,0.087167,-0.083789,0.032542,idle,4,0.01999999999998181,0.14728680053068324
143.381,0.23519,0.091891,-0.104799,0.044412,idle,4,0.020000000000010232,0.1472873907828152
143.401,0.270902,-0.060069,-0.086208,0.023516,idle,4,0.020000000000010232,0.1472761477630689
143.42,0.30327,-0.138149,-0.083085,-0.008817,idle,4,0.018999999999977035,0.14723907046117282
143.44,0.33354,-0.18861,-0.044104,-0.044776,idle,4,0.020000000000010232,0.1469914181069907
143.46,0.33799,-0.223782,-0.060215,-0.080577,idle,4,0.020000000000010232,0.14640057779619767
143.48,0.273839,-0.212255,-0.053725,-0.106913,idle,4,0.01999999999998181,0.14542295747538939
143.501,0.219898,-0.217319,-0.034765,-0.128994,idle,4,0.021000000000015007,0.14394481683234198
143.52,0.158851,-0.271964,-0.015993,-0.157588,idle,4,0.019000000000005457,0.1420853829396646
143.54,0.105484,-0.319182,0.034629,-0.189907,idle,4,0.01999999999998181,0.14017425974135475
143.559,0.082408,-0.291436,0.069537,-0.210213,idle,4,0.019000000000005457,0.13822398414137385
143.579,0.063055,-0.241241,0.075867,-0.216418,idle,4,0.020000000000010232,0.1358222630825543
143.6,0.040172,-0.199872,0.093187,-0.213109,idle,4,0.020999999999986585,0.1322419359793851
143.619,0.01967,-0.159986,0.095344,-0.202484,idle,4,0.019000000000005457,0.1278741941288474
143.639,0.014517,-0.152745,0.121937,-0.192537,idle,4,0.020000000000010232,0.12333513625252916
143.659,0.029274,-0.103861,0.143803,-0.174801,idle,4,0.01999999999998181,0.11861984515222491
143.679,0.04945,-0.049357,0.132726,-0.149713,idle,4,0.020000000000010232,0.113740561066625
143.699,0.085505,-0.000701,0.108174,-0.11991,idle,4,0.020000000000010232,0.108860926740477
143.719,0.110361,0.030454,0.10865,-0.089837,idle,4,0.01999999999998181,0.10408930839708262
143.738,0.123546,0.044891,0.131953,-0.062892,idle,4,0.019000000000005457,0.09971855584898945
143.758,0.13203,0.053623,0.150717,-0.039589,idle,4,0.020000000000010232,0.09613023461230193
143.778,0.125497,0.079252,0.15045,-0.015821,idle,4,0.01999999999998181,0.09266169773779484
143.798,0.134728,0.096288,0.137799,0.006601,idle,4,0.020000000000010232,0.08876650593975567
143.818,0.189112,0.078199,0.187363,0.020921,idle,4,0.020000000000010232,0.08511770985482013
143.838,0.231126,0.092408,0.245482,0.035218,idle,4,0.01999999999998181,0.08252726552212147
143.858,0.237634,0.148349,0.215634,0.057844,idle,4,0.020000000000010232,0.08141096052583487
143.877,0.278271,0.200545,0.178622,0.086385,idle,4,0.019000000000005457,0.08162785897907794
143.897,0.321271,0.199185,0.198615,0.108945,idle,4,0.01999999999998181,0.08280259686022182
143.917,0.288078,0.184254,0.228893,0.124006,idle,4,0.020000000000010232,0.08436335388055292
143.937,0.285585,0.18036,0.218991,0.135277,idle,4,0.020000000000010232,0.08576236566991699
143.957,0.347284,0.207968,0.2284,0.149815,idle,4,0.01999999999998181,0.08691197501739442
143.977,0.335139,0.165922,0.295936,0.153037,idle,4,0.020000000000010232,0.08749383536925427
143.997,0.147631,0.134007,0.319396,0.149231,idle,4,0.020000000000010232,0.08762542624331636
144.018,-0.018404,0.19147,0.185956,0.157679,idle,4,0.020999999999986585,0.08799538795920703
144.037,-0.084527,0.243349,0.024013,0.174813,idle,4,0.019000000000005457,0.0883174332482302
144.056,-0.121366,0.269228,-0.07184,0.193696,idle,4,0.019000000000005457,0.08832780935181482
144.076,-0.14548,0.289262,-0.073988,0.212809,idle,4,0.01999999999998181,0.08971344099921277
144.096,-0.157793,0.292713,-0.048925,0.22879,idle,4,0.020000000000010232,0.09215645571310592
144.116,-0.16283,0.283906,-0.037053,0.239813,idle,4,0.020000000000010232,0.09462893338773848
144.136,-0.149776,0.266539,-0.05995,0.245158,idle,4,0.01999999999998181,0.09697682438183354
144.156,-0.11163,0.232535,-0.10585,0.242634,idle,4,0.020000000000010232,0.09970454297407072
144.175,-0.084465,0.220305,-0.135701,0.238168,idle,4,0.019000000000005457,0.1023992929903802
144.196,-0.09396,0.230795,-0.147803,0.236693,idle,4,0.020999999999986585,0.10487888332319927
144.215,-0.140424,0.21776,-0.147059,0.232907,idle,4,0.019000000000005457,0.10700614695197755
144.235,-0.176311,0.185547,-0.108334,0.223435,idle,4,0.020000000000010232,0.10890129263243889
144.255,-0.142056,0.135011,-0.202781,0.20575,idle,4,0.01999999999998181,0.11050625946248396
144.275,-0.113163,0.106138,-0.270119,0.185828,idle,4,0.020000000000010232,0.11173144644412598
144.295,-0.088036,0.064998,-0.252208,0.161662,idle,4,0.01999999999998181,0.11254287496841005
144.315,-0.087422,0.010715,-0.181032,0.131472,idle,4,0.020000000000010232,0.11302156080799755
144.334,-0.100136,0.001577,-0.129817,0.105493,idle,4,0.019000000000005457,0.11330034141224704
144.354,-0.082064,0.006854,-0.136015,0.085766,idle,4,0.020000000000010232,0.11346811147639953
144.374,-0.058236,-0.014492,-0.146747,0.065714,idle,4,0.01999999999998181,0.11352912040043554
144.394,-0.041288,-0.054598,-0.118466,0.041652,idle,4,0.020000000000010232,0.11346494437849325
144.414,-0.050377,-0.067172,-0.083244,0.019887,idle,4,0.01999999999998181,0.1133757521077216
144.434,-0.040196,-0.045764,-0.066736,0.006757,idle,4,0.020000000000010232,0.11334043281191201
144.454,-0.028466,-0.063032,-0.06462,-0.007201,idle,4,0.020000000000010232,0.11334642203199258
144.474,-0.032645,-0.102483,-0.048571,-0.026257,idle,4,0.01999999999998181,0.11335627965015065
144.494,-0.055273,-0.119397,-0.016343,-0.044885,idle,4,0.020000000000010232,0.11355714330343777
144.513,-0.06599,-0.097922,0.01629,-0.055493,idle,4,0.019000000000005457,0.11381526145842491
144.533,-0.058318,-0.081141,0.004803,-0.060622,idle,4,0.01999999999998181,0.11410776020079462
144.553,-0.045688,-0.054945,-0.000585,-0.059487,idle,4,0.020000000000010232,0.11436593971673976
144.573,-0.020021,-0.056834,0.003604,-0.058956,idle,4,0.020000000000010232,0.11459095615878362
144.593,-0.030485,-0.093099,0.019571,-0.065785,idle,4,0.01999999999998181,0.11481787074855879
144.613,-0.067366,-0.103057,0.030342,-0.073239,idle,4,0.020000000000010232,0.11505333219361562
144.632,-0.071992,-0.075371,0.034101,-0.073666,idle,4,0.019000000000005457,0.1152216273517335
144.652,-0.054978,-0.06136,0.013534,-0.071205,idle,4,0.01999999999998181,0.11542653564405153
144.672,-0.04836,-0.052208,0.008625,-0.067405,idle,4,0.020000000000010232,0.11564995102366314
144.692,-0.038193,-0.055274,0.006015,-0.064979,idle,4,0.020000000000010232,0.11576984213574133
144.712,-0.047076,-0.0624,0.0082,-0.064463,idle,4,0.01999999999998181,0.11588671190338348
144.732,-0.044627,-0.033742,0.010289,-0.058319,idle,4,0.020000000000010232,0.1159742660631068
144.752,-0.029223,-0.019667,-8.2e-05,-0.050588,idle,4,0.020000000000010232,0.11604305167584333
144.771,-0.044644,-0.021917,-0.016523,-0.044854,idle,4,0.018999999999977035,0.11611745743989349
144.792,-0.043584,-0.038011,-0.027636,-0.043486,idle,4,0.021000000000015007,0.11622942142520674
144.811,-0.034209,-0.043119,-0.031574,-0.043412,idle,4,0.019000000000005457,0.11638763913171782
144.831,-0.021686,-0.021133,-0.047065,-0.038957,idle,4,0.01999999999998181,0.11646827612836534
144.851,-0.024847,-0.019418,-0.057968,-0.035049,idle,4,0.020000000000010232,0.11627949041984408
144.871,-0.035253,-0.023926,-0.054841,-0.032824,idle,4,0.020000000000010232,0.11596020082685947
144.891,-0.024743,-0.012037,-0.055233,-0.028667,idle,4,0.01999999999998181,0.11539358211653006
144.911,-0.007086,-0.009089,-0.068515,-0.024751,idle,4,0.020000000000010232,0.11538064600779535
144.931,0.005396,-0.020834,-0.054275,-0.023968,idle,4,0.020000000000010232,0.11543267172809123
144.95,-0.016138,-0.034039,-0.031708,-0.025982,idle,4,0.018999999999977035,0.11549019646942281
144.97,-0.036072,-0.034889,-0.017271,-0.027764,idle,4,0.020000000000010232,0.11555233918081975
144.99,-0.067253,-0.026696,-0.010588,-0.02755,idle,4,0.020000000000010232,0.11560623570106993
145.01,-0.084498,-0.017045,0.004877,-0.025449,idle,4,0.01999999999998181,0.11565863908933867
145.03,-0.074071,-0.005727,0.0253,-0.021505,idle,4,0.020000000000010232,0.1156850671700414
145.05,-0.077532,0.01261,0.031312,-0.014682,idle,4,0.020000000000010232,0.11568194819926265
145.07,-0.09674,0.029607,0.016291,-0.005824,idle,4,0.01999999999998181,0.11568433546023542
145.09,-0.118943,0.035691,0.015381,0.002479,idle,4,0.020000000000010232,0.1156808930103251
145.109,-0.106563,0.031388,0.007144,0.008261,idle,4,0.019000000000005457,0.11564957221467048
145.129,-0.096705,0.028136,0.003505,0.012236,idle,4,0.01999999999998181,0.11562974979511645
145.149,-0.101706,0.033459,0.009152,0.01648,idle,4,0.020000000000010232,0.1154960235895413
145.169,-0.10069,0.071796,0.031619,0.027543,idle,4,0.020000000000010232,0.1153102205798307
145.189,-0.095152,0.12662,0.048131,0.047359,idle,4,0.01999999999998181,0.11519585476165627
145.209,-0.055407,0.149707,0.014773,0.067829,idle,4,0.020000000000010232,0.11532445346916688
145.228,0.002303,0.180561,-0.022011,0.090375,idle,4,0.019000000000005457,0.11558465110144182
145.248,0.039889,0.153676,-0.002549,0.103035,idle,4,0.01999999999998181,0.11593253770602803
145.269,0.030555,0.104398,-0.001461,0.103308,idle,4,0.021000000000015007,0.1162690455424879
145.288,0.015981,0.059988,-0.023571,0.094644,idle,4,0.019000000000005457,0.11653951264489097
145.308,0.01556,0.054538,-0.046169,0.086623,idle,4,0.01999999999998181,0.11675326776548745
145.328,0.015117,0.058707,-0.004503,0.08104,idle,4,0.020000000000010232,0.11693026258734335
145.348,0.029409,0.06702,0.009155,0.078236,idle,4,0.020000000000010232,0.11707948024431265
145.368,0.052102,0.031065,-0.015141,0.068802,idle,4,0.01999999999998181,0.11716087442163461
145.388,0.083898,0.012391,-0.026667,0.057519,idle,4,0.020000000000010232,0.11722626806527894
145.408,0.150629,-0.013747,0.030734,0.043266,idle,4,0.01999999999998181,0.11721993797509218
145.428,0.142397,-0.035444,0.060367,0.027524,idle,4,0.020000000000010232,0.11704609329392121
145.447,0.103398,-0.008437,0.08953,0.020332,idle,4,0.019000000000005457,0.11660771568624763
145.467,0.112839,0.091389,-0.082808,0.034543,idle,4,0.020000000000010232,0.11590075643537463
145.487,0.275432,-0.074227,-0.20474,0.012789,idle,4,0.01999999999998181,0.11489733058155917
145.507,0.314799,-0.108451,0.045317,-0.011459,idle,4,0.020000000000010232,0.11349212241735313
145.527,0.24999,-0.178715,0.127207,-0.04491,idle,4,0.01999999999998181,0.11163073765753437
145.547,0.2583,-0.136149,-0.080182,-0.063158,idle,4,0.020000000000010232,0.10942955407351523
145.566,0.297905,-0.303467,-0.107383,-0.11122,idle,4,0.019000000000005457,0.10754715191654832
145.587,0.211385,-0.264996,0.171476,-0.141975,idle,4,0.020999999999986585,0.10615658394331962
145.606,0.152825,-0.20418,0.187557,-0.154416,idle,4,0.019000000000005457,0.10519957614521283
145.626,0.116011,-0.181336,0.07114,-0.1598,idle,4,0.020000000000010232,0.10454872377493707
145.646,0.088882,-0.225871,0.057527,-0.173014,idle,4,0.01999999999998181,0.10451344000905903
145.666,0.201922,-0.360153,-0.033795,-0.210442,idle,4,0.020000000000010232,0.10574000444474817
145.686,0.190428,-0.145615,-0.052542,-0.197477,idle,4,0.020000000000010232,0.10712492254310466
145.706,-0.083699,0.151544,-0.081904,-0.127672,idle,4,0.01999999999998181,0.10761474263822277
145.725,-0.212574,0.132446,0.047757,-0.075649,idle,4,0.019000000000005457,0.10773187662048228
145.745,0.000751,-0.08289,-0.037358,-0.077097,idle,4,0.020000000000010232,0.10803634188805653
145.765,0.065043,0.102437,-0.101994,-0.04119,idle,4,0.01999999999998181,0.1081703798491038
145.785,0.021474,0.083683,-0.030843,-0.016215,idle,4,0.020000000000010232,0.1082398273289085
145.805,-0.035527,0.032594,0.08042,-0.006453,idle,4,0.020000000000010232,0.10829170879885573
145.825,-0.046128,0.013208,0.192659,-0.002521,idle,4,0.01999999999998181,0.10832998062359371
145.844,-0.071132,-0.049682,0.239598,-0.011953,idle,4,0.019000000000005457,0.10835431475879717
145.865,-0.064182,0.075615,0.112762,0.00556,idle,4,0.021000000000015007,0.1082032098763384
145.884,-0.093427,0.09047,0.022407,0.022542,idle,4,0.018999999999977035,0.10787485034919032
145.904,-0.121734,0.174957,-0.160306,0.053025,idle,4,0.020000000000010232,0.1074472593683976
145.924,-0.157796,0.153168,-0.249063,0.073054,idle,4,0.020000000000010232,0.10697520304029684
145.944,-0.228763,-0.047449,-0.113402,0.048953,idle,4,0.01999999999998181,0.10624359293127217
145.964,-0.24652,-0.020112,-0.05242,0.03514,idle,4,0.020000000000010232,0.10542945104753106
145.984,-0.226157,0.073772,-0.144842,0.042867,idle,4,0.020000000000010232,0.104657886186941
146.004,-0.15091,0.133664,-0.086386,0.061026,idle,4,0.01999999999998181,0.10381723451487608
146.024,-0.099828,-0.009223,0.077515,0.046976,idle,4,0.020000000000010232,0.10266127834407629
146.044,-0.097443,0.011418,0.114313,0.039865,idle,4,0.020000000000010232,0.1011407773813083
146.063,-0.05004,0.216113,-0.096657,0.075114,idle,4,0.018999999999977035,0.09936003141258058
146.083,0.017176,0.031917,-0.186841,0.066475,idle,4,0.020000000000010232,0.09713176212119336
146.103,0.052302,-0.178256,0.119275,0.017529,idle,4,0.020000000000010232,0.09440069947657528
146.123,0.019585,0.087661,0.310812,0.031555,idle,4,0.01999999999998181,0.09142009438924519
146.143,0.008188,0.296366,0.062624,0.084517,idle,4,0.020000000000010232,0.0886631448666608
146.163,0.097233,0.088668,-0.016201,0.085347,idle,4,0.020000000000010232,0.08591923520657493
146.182,0.05493,0.027722,0.210742,0.073822,idle,4,0.018999999999977035,0.08299257231975714
146.202,0.04704,-0.751547,0.140424,-0.091251,idle,4,0.020000000000010232,0.08025478827868518
146.222,-0.096242,0.381488,0.066801,0.003297,idle,4,0.020000000000010232,0.07704566305029908
146.242,0.076807,0.523124,-0.405109,0.107262,idle,4,0.01999999999998181,0.07497458577764679
146.262,0.197082,-0.292581,0.054709,0.027293,idle,4,0.020000000000010232,0.07259635654567652
146.282,0.078295,-0.57879,0.037209,-0.093923,idle,4,0.020000000000010232,0.0711973684274238
146.302,0.042603,0.074854,-0.072982,-0.060168,idle,4,0.01999999999998181,0.07001907732184455
146.322,0.02619,0.456773,-0.093745,0.04322,idle,4,0.020000000000010232,0.06926985495950626
146.341,0.001451,0.226813,-0.023414,0.079939,idle,4,0.019000000000005457,0.06919181737071987
146.361,0.044638,-0.249014,0.144564,0.014148,idle,4,0.01999999999998181,0.06882078825980292
146.381,-0.009522,-0.035337,0.069883,0.004251,idle,4,0.020000000000010232,0.06864148668530431
146.401,0.047829,0.377811,0.040365,0.078963,idle,4,0.020000000000010232,0.06915236993142351
146.421,0.130563,0.086101,0.099355,0.080391,idle,4,0.01999999999998181,0.0697144446631256
146.441,0.018954,-0.246792,0.154145,0.014954,idle,4,0.020000000000010232,0.06975389981539515
146.461,-0.04944,-0.204309,0.042827,-0.028898,idle,4,0.020000000000010232,0.06976126410327431
146.48,-0.020463,0.081806,0.053629,-0.006757,idle,4,0.018999999999977035,0.06966360100578242
146.501,0.036747,0.033264,0.136905,0.001247,idle,4,0.021000000000015007,0.06950336380021743
146.52,0.000503,-0.168417,0.142984,-0.032686,idle,4,0.019000000000005457,0.06934318105798089
146.54,-0.010134,-0.093716,0.018403,-0.044892,idle,4,0.01999999999998181,0.06924711068202126
146.56,0.029625,-0.053967,-0.0463,-0.046707,idle,4,0.020000000000010232,0.06916499112293938
146.58,-0.044758,0.021124,-0.042528,-0.033141,idle,4,0.020000000000010232,0.06896069696190606
146.6,-0.035008,0.149131,-0.009245,0.003314,idle,4,0.01999999999998181,0.06863661159185035
146.62,0.046491,-0.092193,0.010265,-0.015788,idle,4,0.020000000000010232,0.06830129251707799
146.639,0.018303,-0.139552,-0.059125,-0.040541,idle,4,0.019000000000005457,0.06807025900180895
146.659,0.064978,-0.030178,-0.012942,-0.038468,idle,4,0.01999999999998181,0.06786288110972481
146.679,0.047315,0.130905,-0.028186,-0.004593,idle,4,0.020000000000010232,0.06758802980537038
146.699,0.039602,-0.024182,-0.043632,-0.008511,idle,4,0.020000000000010232,0.06731319570609307
146.719,-0.202603,0.031826,-0.194323,-0.000444,idle,4,0.01999999999998181,0.06708471426184621
146.739,0.214228,-0.122454,0.170389,-0.024846,idle,4,0.020000000000010232,0.066948849354933
146.759,-0.142521,0.126856,-0.156138,0.005494,idle,4,0.01999999999998181,0.06681684051167976
146.779,-0.029408,-0.050026,0.01162,-0.00561,idle,4,0.020000000000010232,0.066686908488412
146.799,0.180184,-0.203284,0.136507,-0.045145,idle,4,0.020000000000010232,0.06669808494237082
146.818,-0.160209,-0.04857,0.062512,-0.04583,idle,4,0.019000000000005457,0.06674038629321297
146.838,-0.194345,0.087529,0.032914,-0.019158,idle,4,0.01999999999998181,0.06667924976471896
146.858,-0.379636,0.190846,-0.040159,0.022843,idle,4,0.020000000000010232,0.06664843740801216
146.878,-0.19629,-0.017107,0.172526,0.014853,idle,4,0.01999999999998181,0.06660841917889608
146.9,-0.04459,0.046115,0.032538,0.021105,idle,4,0.02200000000001978,0.06659848582677998
146.918,-0.43356,0.176231,-0.046757,0.05213,idle,4,0.018000000000000682,0.0667583313850275
146.937,-0.186848,0.08573,-0.039536,0.05885,idle,4,0.019000000000005457,0.06695589138594511
146.957,-0.05198,0.027586,-0.001045,0.052598,idle,4,0.01999999999998181,0.06708392938088985
146.977,-0.211768,0.086493,-0.215681,0.059377,idle,4,0.020000000000010232,0.06725688904772277
146.997,-0.246846,0.085524,-0.206624,0.064606,idle,4,0.020000000000010232,0.06747309521931809
147.017,-0.118452,0.05616,-0.176856,0.062917,idle,4,0.01999999999998181,0.06767836480911735
147.037,-0.115689,0.118545,-0.190518,0.074043,idle,4,0.020000000000010232,0.06800038185856176
147.057,-0.183462,0.106251,-0.088945,0.080484,idle,4,0.01999999999998181,0.06839856944352801
147.077,-0.215029,0.043461,-0.062293,0.07308,idle,4,0.020000000000010232,0.06871909934921502
147.097,-0.143156,0.061255,-0.079113,0.070715,idle,4,0.020000000000010232,0.06901093766719495
147.116,-0.138746,0.093005,-0.034394,0.075173,idle,4,0.019000000000005457,0.06933670902447388
147.136,-0.140174,0.123646,0.015591,0.084867,idle,4,0.01999999999998181,0.06975150616461506
147.156,-0.177935,0.027157,-0.031379,0.073325,idle,4,0.020000000000010232,0.07002246959405324
147.176,-0.106921,-0.13757,-0.030782,0.031146,idle,4,0.01999999999998181,0.06995316030129949
147.196,0.03049,-0.139251,0.047245,-0.002933,idle,4,0.020000000000010232,0.06971518728917508
147.216,0.05667,-0.020594,0.161605,-0.006465,idle,4,0.020000000000010232,0.06924220144655108
147.236,0.079352,0.138041,0.037301,0.022436,idle,4,0.01999999999998181,0.06858935471424688
147.255,0.242965,-0.047772,-0.150998,0.008394,idle,4,0.019000000000005457,0.06789737163329305
147.275,0.286698,-0.142488,0.027566,-0.021782,idle,4,0.020000000000010232,0.06736016440918129
147.296,0.280075,-0.088119,0.15432,-0.03505,idle,4,0.020999999999986585,0.06696785873599631
147.315,0.243681,0.077856,0.064365,-0.012468,idle,4,0.019000000000005457,0.06652899024858318
147.335,0.16747,-0.026912,-0.127582,-0.015357,idle,4,0.020000000000010232,0.06611413596215744
147.355,0.238302,-0.152305,-0.141119,-0.042747,idle,4,0.01999999999998181,0.0659141451110819
147.375,0.165828,-0.025475,-0.024032,-0.039292,idle,4,0.020000000000010232,0.06578279450325127
147.395,-0.012182,-0.045819,0.038996,-0.040598,idle,4,0.020000000000010232,0.06575743814392819
147.415,-0.041056,-0.0019,-0.064349,-0.032858,idle,4,0.01999999999998181,0.06576959775731647
147.434,0.402898,-0.072148,0.176272,-0.040716,idle,4,0.019000000000005457,0.06584670593641556
147.454,1.568245,-0.63369,0.552518,-0.159311,idle,4,0.020000000000010232,0.06758269335477293
147.474,0.709375,-0.439843,-0.245587,-0.215417,idle,4,0.01999999999998181,0.07078026297063283
147.494,-0.308055,0.291732,-0.069053,-0.113987,idle,4,0.020000000000010232,0.07159092097894647
147.514,-0.370438,0.396027,-0.069323,-0.011985,idle,4,0.020000000000010232,0.07149284325392594
147.534,-0.012831,0.035437,0.036454,-0.0025,idle,4,0.01999999999998181,0.07127012259463329
147.554,0.015729,-0.035307,0.093462,-0.009062,idle,4,0.020000000000010232,0.07048286116795581
147.574,0.076979,0.022406,0.079369,-0.002768,idle,4,0.020000000000010232,0.06912290298548979
147.593,0.078602,-0.093003,0.060722,-0.020815,idle,4,0.018999999999977035,0.06746064195337556
147.613,0.004354,-0.113939,0.088183,-0.03944,idle,4,0.020000000000010232,0.06568200202599911
147.633,0.046708,-0.114554,0.059166,-0.054463,idle,4,0.020000000000010232,0.0635940055375244
147.653,0.072403,-0.132092,0.020333,-0.069989,idle,4,0.01999999999998181,0.06037880351318963
147.673,0.049615,-0.026698,-0.005049,-0.06133,idle,4,0.020000000000010232,0.05731628399374943
147.693,0.024213,-0.134557,-0.032406,-0.075976,idle,4,0.020000000000010232,0.05635703640522104
147.713,0.02524,-0.190739,0.071088,-0.098928,idle,4,0.01999999999998181,0.05673136953445122
147.732,0.00481,-0.285073,0.115043,-0.136157,idle,4,0.019000000000005457,0.057865626642918964
147.752,0.073176,-0.180574,0.144858,-0.145041,idle,4,0.020000000000010232,0.059556155079115825
147.772,0.021414,-0.241327,0.147571,-0.164298,idle,4,0.01999999999998181,0.06178726348837056
147.792,0.031757,-0.212271,0.159146,-0.173893,idle,4,0.020000000000010232,0.06417294163609624
147.812,0.05492,-0.075762,0.201154,-0.154267,idle,4,0.020000000000010232,0.06595073498128458
147.832,0.066599,-0.097439,0.152294,-0.142901,idle,4,0.01999999999998181,0.06740051251816286
147.852,0.061465,-0.183091,0.14286,-0.150939,idle,4,0.020000000000010232,0.06895186598552996
147.872,-0.019809,-0.090713,0.117983,-0.138894,idle,4,0.020000000000010232,0.07014303812073215
147.892,-0.075687,-0.047337,0.042836,-0.120583,idle,4,0.01999999999998181,0.07075862405964208
147.911,-0.108117,-0.034116,0.039616,-0.103289,idle,4,0.019000000000005457,0.07086728173090026
147.931,-0.138791,0.051033,-0.000933,-0.072425,idle,4,0.020000000000010232,0.07085775819602812
147.951,-0.105151,0.09704,0.037362,-0.038532,idle,4,0.01999999999998181,0.07073618883882521
147.971,-0.048767,0.123085,0.131827,-0.006209,idle,4,0.020000000000010232,0.07051013993412021
147.991,0.04652,0.218163,0.14575,0.038666,idle,4,0.020000000000010232,0.07030458324357272
148.011,0.076168,0.354211,0.081971,0.101775,idle,4,0.01999999999998181,0.07099752474504199
148.031,0.054436,0.365831,0.034871,0.154586,idle,4,0.020000000000010232,0.07277790247397235
148.05,0.02403,0.27215,0.050499,0.178099,idle,4,0.019000000000005457,0.07473469068922789
148.07,0.020061,0.194025,-0.001575,0.181284,idle,4,0.01999999999998181,0.07679983766158348
148.09,0.003479,0.187862,-0.065298,0.1826,idle,4,0.020000000000010232,0.07914590204547765
148.11,-0.010838,0.182302,-0.098979,0.18254,idle,4,0.020000000000010232,0.08133383138350934
148.13,-0.003443,0.128876,-0.090993,0.171807,idle,4,0.01999999999998181,0.08278477943447128
148.15,0.020448,0.065786,-0.079545,0.150603,idle,4,0.020000000000010232,0.08376695860858771
148.17,0.009486,0.038525,-0.090681,0.128188,idle,4,0.01999999999998181,0.08446237539876521
148.19,-0.025051,0.048151,-0.137365,0.11218,idle,4,0.020000000000010232,0.08481898505880434
148.209,-0.069552,0.071018,-0.179424,0.103948,idle,4,0.019000000000005457,0.08549147305520359
148.229,-0.109658,0.070771,-0.188161,0.097312,idle,4,0.020000000000010232,0.0853684887279496
148.249,-0.132449,0.056517,-0.174049,0.089153,idle,4,0.01999999999998181,0.08580808868362283
148.269,-0.158532,0.056759,-0.153833,0.082674,idle,4,0.020000000000010232,0.08570770926789206
148.289,-0.181443,0.064387,-0.122556,0.079017,idle,4,0.01999999999998181,0.08584938880133712
148.309,-0.189391,0.081602,-0.085474,0.079534,idle,4,0.020000000000010232,0.08610417287525168
148.329,-0.198827,0.099683,-0.057781,0.083564,idle,4,0.020000000000010232,0.08613814147047925
148.348,-0.19323,0.108434,-0.02363,0.088538,idle,4,0.019000000000005457,0.08656535991362929
148.368,-0.171593,0.12304,0.002103,0.095438,idle,4,0.01999999999998181,0.08706157489887625
148.388,-0.149867,0.135359,0.01806,0.103422,idle,4,0.020000000000010232,0.0873096366318048
148.408,-0.141584,0.139429,0.01638,0.110624,idle,4,0.01999999999998181,0.08762937303381849
148.428,-0.114968,0.139451,0.015124,0.116389,idle,4,0.020000000000010232,0.08834072758670886
148.448,-0.065987,0.134206,0.039664,0.119953,idle,4,0.020000000000010232,0.08901369326371295
148.468,0.046993,0.146378,0.068756,0.125238,idle,4,0.01999999999998181,0.08978918362463373
148.488,0.216201,0.191017,0.103182,0.138394,idle,4,0.020000000000010232,0.09072901685605646
148.507,0.425349,0.235761,0.109689,0.157867,idle,4,0.019000000000005457,0.09183320392147516
148.527,0.451689,0.255351,0.084637,0.177364,idle,4,0.01999999999998181,0.09314268100884342
148.547,0.204274,0.20326,0.005682,0.182543,idle,4,0.020000000000010232,0.09446024313616519
148.567,-0.021727,0.138556,-0.056343,0.173746,idle,4,0.020000000000010232,0.09563815134989467
148.587,-0.11831,0.072113,-0.059619,0.153419,idle,4,0.01999999999998181,0.09658239347517508
148.607,-0.084292,0.027388,0.007795,0.128213,idle,4,0.020000000000010232,0.09712648607700045
148.627,0.035684,-0.01095,0.107618,0.10038,idle,4,0.020000000000010232,0.09725115234051462
148.646,0.094109,-0.028918,0.184152,0.074521,idle,4,0.018999999999977035,0.09719655832276683
148.666,0.101397,-0.042708,0.20553,0.051075,idle,4,0.020000000000010232,0.0971949415151594
148.686,0.084868,-0.06168,0.157773,0.028524,idle,4,0.020000000000010232,0.09714112906485257
148.706,0.020845,-0.086971,0.090783,0.005425,idle,4,0.01999999999998181,0.09712788030287077
148.726,-0.024561,-0.093364,0.020159,-0.014333,idle,4,0.020000000000010232,0.09707990456933668
148.746,-0.025249,-0.113573,-0.011438,-0.034181,idle,4,0.020000000000010232,0.09723861709912687
148.766,-0.030103,-0.143097,-0.009541,-0.055964,idle,4,0.01999999999998181,0.09752312487605082
148.786,-0.013667,-0.16326,0.002371,-0.077423,idle,4,0.020000000000010232,0.09780540258053906
148.805,0.019201,-0.169449,-0.01229,-0.095828,idle,4,0.019000000000005457,0.09828798635264475
148.825,0.057485,-0.200638,-0.012966,-0.11679,idle,4,0.01999999999998181,0.09918785148291026
148.845,0.086737,-0.230999,-0.024137,-0.139632,idle,4,0.020000000000010232,0.10049000711091588
148.865,0.099201,-0.264963,-0.014589,-0.164698,idle,4,0.020000000000010232,0.10217303440577827
148.885,0.073297,-0.304403,0.007486,-0.192639,idle,4,0.01999999999998181,0.10432500953794749
148.905,0.04079,-0.326743,0.033729,-0.21946,idle,4,0.020000000000010232,0.10688078462610966
148.925,0.008468,-0.32987,0.043832,-0.241542,idle,4,0.020000000000010232,0.10977157421609986
148.945,-0.018171,-0.327249,0.051467,-0.258683,idle,4,0.01999999999998181,0.11292970668124813
148.965,-0.034245,-0.315158,0.060582,-0.269978,idle,4,0.020000000000010232,0.11615070811751042
148.984,-0.047687,-0.282141,0.059741,-0.272411,idle,4,0.019000000000005457,0.11922171765230559
149.004,-0.067117,-0.243513,0.052341,-0.266631,idle,4,0.01999999999998181,0.12200337328269735
149.024,-0.07382,-0.209143,0.051974,-0.255134,idle,4,0.020000000000010232,0.12432999696885978
149.044,-0.072071,-0.166278,0.047443,-0.237362,idle,4,0.020000000000010232,0.1261460837459968
149.064,-0.060564,-0.121866,0.043783,-0.214263,idle,4,0.01999999999998181,0.12751841795965377
149.084,-0.038763,-0.083633,0.029116,-0.188137,idle,4,0.020000000000010232,0.12844506462930477
149.104,-0.003049,-0.045546,0.018898,-0.159619,idle,4,0.020000000000010232,0.12893161554212623
149.123,0.024571,-0.012967,0.019414,-0.130288,idle,4,0.018999999999977035,0.12900978227307644
149.143,0.048867,0.030803,0.025336,-0.09807,idle,4,0.020000000000010232,0.12890732242043382
149.163,0.072365,0.076861,0.016224,-0.063084,idle,4,0.020000000000010232,0.12886771238891118
149.183,0.08596,0.126173,-0.004867,-0.025233,idle,4,0.01999999999998181,0.12885402126683498
149.203,0.108985,0.172076,-0.022258,0.014229,idle,4,0.020000000000010232,0.12889587657056592
149.223,0.103851,0.207602,-0.053293,0.052904,idle,4,0.020000000000010232,0.12903747576505906
149.242,0.122578,0.250306,-0.098626,0.092384,idle,4,0.018999999999977035,0.1295066110923152
149.262,0.20574,0.323755,-0.148249,0.138658,idle,4,0.020000000000010232,0.13048289237735972
149.282,0.190929,0.388731,-0.182743,0.188673,idle,4,0.020000000000010232,0.13211390905662942
149.303,0.207555,0.433659,-0.214606,0.23767,idle,4,0.020999999999986585,0.13454306435489707
149.322,0.219425,0.455703,-0.253043,0.281277,idle,4,0.019000000000005457,0.1377519973801092
149.342,0.0774,0.444397,-0.288225,0.313901,idle,4,0.020000000000010232,0.14149731431733714
149.362,-0.110585,0.400475,-0.29467,0.331216,idle,4,0.01999999999998181,0.14545971894137202
149.382,-0.243903,0.330004,-0.27325,0.330973,idle,4,0.020000000000010232,0.14921516718997752
149.402,-0.247923,0.265794,-0.231168,0.317938,idle,4,0.01999999999998181,0.1525305556418309
149.421,-0.149553,0.235275,-0.16019,0.301405,idle,4,0.019000000000005457,0.15534799640809666
149.442,-0.026417,0.229754,-0.098754,0.287075,idle,4,0.021000000000015007,0.15693910422465102
149.461,0.079727,0.227356,-0.062419,0.275131,idle,4,0.019000000000005457,0.15745573167167892
149.481,0.161022,0.214806,-0.041201,0.263066,idle,4,0.01999999999998181,0.15882212245109023
149.501,0.151349,0.184904,-0.030455,0.247434,idle,4,0.020000000000010232,0.16041023942608792
149.521,0.103983,0.149269,-0.023707,0.227801,idle,4,0.01999999999998181,0.16169885334565426
149.541,0.073362,0.096871,-0.02984,0.201615,idle,4,0.020000000000010232,0.16262580124409518
149.561,0.05566,0.030389,-0.050247,0.16737,idle,4,0.020000000000010232,0.16320341517175166
149.58,0.04194,-0.018548,-0.030693,0.130186,idle,4,0.019000000000005457,0.16344188334139886
149.601,0.049204,-0.052819,0.00888,0.093585,idle,4,0.020999999999986585,0.16341312024958757
149.62,0.078891,-0.075493,0.056448,0.059769,idle,4,0.019000000000005457,0.16320713337130427
149.64,0.117275,-0.107984,0.097619,0.026219,idle,4,0.01999999999998181,0.16288083842085263
149.66,0.140535,-0.157006,0.131724,-0.010426,idle,4,0.020000000000010232,0.1626613787316793
149.68,0.148004,-0.207707,0.16904,-0.049882,idle,4,0.020000000000010232,0.16250427215297195
149.7,0.14924,-0.250212,0.20002,-0.089948,idle,4,0.01999999999998181,0.16243247776823075
149.72,0.138225,-0.284711,0.20805,-0.128901,idle,4,0.020000000000010232,0.16235721228263247
149.739,0.121567,-0.326274,0.195043,-0.168375,idle,4,0.019000000000005457,0.16263405710948745
149.759,0.114443,-0.356985,0.174562,-0.206097,idle,4,0.01999999999998181,0.16320168191323486
149.779,0.114789,-0.377354,0.174107,-0.240349,idle,4,0.020000000000010232,0.1641875466236417
149.8,0.122501,-0.3922,0.173164,-0.270719,idle,4,0.021000000000015007,0.16593256907055212
149.819,0.123594,-0.406183,0.162327,-0.297812,idle,4,0.018999999999977035,0.16828635413122994
149.839,0.126915,-0.416714,0.148054,-0.321592,descending,4,0.020000000000010232,0.1709858282324231
149.859,0.143437,-0.422957,0.128153,-0.341865,descending,4,0.020000000000010232,0.17416848871689386
149.878,0.172961,-0.422331,0.101736,-0.357958,descending,4,0.018999999999977035,0.1777737172292208
149.899,0.198582,-0.411932,0.061463,-0.368753,descending,4,0.021000000000015007,0.1816357882280323
149.918,0.236582,-0.4051,0.030568,-0.376023,descending,4,0.019000000000005457,0.1857127218632101
149.938,0.287438,-0.386711,0.037796,-0.37816,descending,4,0.01999999999998181,0.18982518068627194
149.958,0.357501,-0.35917,0.098062,-0.374362,descending,4,0.020000000000010232,0.19377061292896242
149.978,0.485629,-0.307257,0.172453,-0.360941,descending,4,0.020000000000010232,0.19729041723960083
149.998,0.613604,-0.221222,0.158948,-0.332997,descending,4,0.01999999999998181,0.19996144471958352
150.018,0.499994,-0.148782,0.053726,-0.296154,descending,4,0.020000000000010232,0.20158401526822564
150.038,0.195371,-0.124987,-0.070707,-0.261921,descending,4,0.020000000000010232,0.2024250572716978
150.057,-0.058925,-0.110687,-0.155338,-0.231674,descending,4,0.018999999999977035,0.20278007777278168
150.077,-0.207405,-0.094495,-0.188777,-0.204238,descending,4,0.020000000000010232,0.2027582753712879
150.097,-0.103088,-0.073504,-0.086033,-0.178091,descending,4,0.020000000000010232,0.20243620994223263
150.117,0.180237,-0.073037,0.090426,-0.15708,descending,4,0.01999999999998181,0.20200088139537287
150.137,0.395136,-0.04804,0.222219,-0.135272,bottom,4,0.020000000000010232,0.20157336759424038
150.157,0.467133,-0.013917,0.264928,-0.111001,bottom,4,0.020000000000010232,0.20117230243788942
150.177,0.351109,-0.01343,0.241388,-0.091487,bottom,4,0.01999999999998181,0.20078952447861573
150.197,0.1271,-0.014299,0.168178,-0.07605,bottom,4,0.020000000000010232,0.20040054010488806
150.216,-0.019866,0.010434,0.099802,-0.058753,bottom,4,0.019000000000005457,0.20000741388947965
150.237,-0.126521,0.012986,0.082253,-0.044405,bottom,4,0.020999999999986585,0.19963967347193656
150.256,-0.187438,0.027852,0.103563,-0.029954,bottom,4,0.019000000000005457,0.1992992572208797
150.276,-0.201229,0.065634,0.135271,-0.010836,bottom,4,0.020000000000010232,0.19898738700884538
150.296,-0.187301,0.093913,0.170887,0.010114,bottom,4,0.01999999999998181,0.19870541885451287
150.316,-0.172267,0.111333,0.210007,0.030358,bottom,4,0.020000000000010232,0.19845451150603383
150.336,-0.158478,0.118259,0.235587,0.047938,bottom,4,0.020000000000010232,0.19823853976461692
150.356,-0.157781,0.129136,0.236628,0.064178,bottom,4,0.01999999999998181,0.19805307363969088
150.375,-0.17006,0.156341,0.215675,0.08261,bottom,4,0.019000000000005457,0.19791519396317184
150.396,-0.185227,0.192921,0.179604,0.104672,bottom,4,0.020999999999986585,0.1978712578490611
150.415,-0.200212,0.226781,0.120121,0.129094,bottom,4,0.019000000000005457,0.1979747934656993
150.435,-0.193625,0.26338,0.050616,0.155951,bottom,4,0.020000000000010232,0.19829530185270394
150.455,-0.126839,0.311097,-0.046917,0.18698,bottom,4,0.020000000000010232,0.1988992265628335
150.475,-0.008538,0.369298,-0.165798,0.223444,bottom,4,0.01999999999998181,0.19983167792402118
150.497,0.058246,0.400005,-0.190066,0.258756,bottom,4,0.02200000000001978,0.20106633866279092
150.514,0.164926,0.388646,-0.168633,0.284734,bottom,4,0.016999999999995907,0.2024882790614314
150.534,0.384215,0.407812,-0.183418,0.30935,ascending,4,0.01999999999998181,0.20424097915442732
150.554,0.427867,0.413244,-0.240937,0.330129,ascending,4,0.020000000000010232,0.2064169904046287
150.574,0.298539,0.348945,-0.28442,0.333892,ascending,4,0.020000000000010232,0.20881304552053068
150.594,0.360412,0.318178,-0.284445,0.330749,ascending,4,0.01999999999998181,0.21131398125948447
150.614,0.344321,0.301819,-0.337973,0.324963,ascending,4,0.020000000000010232,0.21385212115539973
150.634,0.105688,0.263331,-0.40856,0.312637,ascending,4,0.01999999999998181,0.21627278031167615
150.653,-0.138162,0.195418,-0.414799,0.289193,ascending,4,0.019000000000005457,0.21838240348590526
150.673,-0.293982,0.15194,-0.388936,0.261742,ascending,4,0.020000000000010232,0.2201364771619154
150.693,-0.289382,0.153448,-0.359572,0.240083,ascending,4,0.020000000000010232,0.22162317855973984
150.713,-0.174355,0.165906,-0.302414,0.225248,ascending,4,0.01999999999998181,0.2229174387646954
150.733,-0.009071,0.167613,-0.226627,0.213721,ascending,4,0.020000000000010232,0.22404630494134173
150.753,0.171526,0.155091,-0.158588,0.201995,ascending,4,0.01999999999998181,0.22499174376498798
150.773,0.244201,0.092058,-0.105086,0.180007,ascending,4,0.020000000000010232,0.22565144608355134
150.793,0.171392,0.010288,-0.075789,0.146064,lockout,4,0.020000000000010232,0.22595976789361252
150.812,0.06016,-0.055413,-0.03885,0.105768,idle,5,0.019000000000005457,0.22591541812248334
150.833,0.00464,-0.107567,-0.015344,0.063101,idle,5,0.020999999999986585,0.22555855504172012
150.852,-0.005487,-0.13224,-0.002792,0.024033,idle,5,0.019000000000005457,0.22493765531794907
150.872,-0.003964,-0.159552,0.032496,-0.012684,idle,5,0.020000000000010232,0.22406697694487188
150.893,0.024768,-0.178213,0.08375,-0.04579,idle,5,0.020999999999986585,0.222973978966065
150.912,0.043278,-0.181651,0.132814,-0.072962,idle,5,0.019000000000005457,0.2217056651262715
150.932,0.039328,-0.180926,0.16827,-0.094555,idle,5,0.01999999999998181,0.2203056324339843
150.952,0.048296,-0.165033,0.190265,-0.108651,idle,5,0.020000000000010232,0.21881412782583975
150.971,0.041629,-0.184301,0.195829,-0.123781,idle,5,0.019000000000005457,0.2173596080105922
150.991,0.014422,-0.227298,0.216426,-0.144484,idle,5,0.020000000000010232,0.21610660534188667
151.011,-0.008341,-0.260242,0.244217,-0.167636,idle,5,0.01999999999998181,0.21517631311942845
151.031,-0.005896,-0.266548,0.252592,-0.187418,idle,5,0.020000000000010232,0.21463951593765093
151.051,0.024798,-0.269285,0.244669,-0.203792,idle,5,0.01999999999998181,0.21452831237028255
151.071,0.064631,-0.270265,0.235578,-0.217086,idle,5,0.020000000000010232,0.21482675581907834
151.091,0.097231,-0.263846,0.239504,-0.226438,idle,5,0.020000000000010232,0.215482520342273
151.111,0.126566,-0.255441,0.241764,-0.232239,idle,5,0.01999999999998181,0.21641925460115516
151.13,0.146086,-0.243841,0.227715,-0.234559,idle,5,0.019000000000005457,0.2175647554353971
151.15,0.149275,-0.233425,0.178366,-0.234332,idle,5,0.020000000000010232,0.21884222511986867
151.17,0.151603,-0.212949,0.121688,-0.230056,idle,5,0.01999999999998181,0.22014491000511005
151.19,0.188477,-0.149658,0.109501,-0.213976,idle,5,0.020000000000010232,0.22127565105861072
151.21,0.30219,-0.062291,0.138866,-0.183639,idle,5,0.020000000000010232,0.22204568618905915
151.23,0.379232,0.014372,0.078758,-0.144037,idle,5,0.01999999999998181,0.2223630676978248
151.25,0.178755,0.081545,-0.081893,-0.098921,idle,5,0.020000000000010232,0.22216295875493264
151.27,-0.051118,0.085444,-0.237086,-0.062048,idle,5,0.020000000000010232,0.22142739830118555
151.289,-0.193675,0.015138,-0.231492,-0.046611,idle,5,0.018999999999977035,0.220135739350865
151.309,-0.158442,0.003729,-0.166815,-0.036543,idle,5,0.020000000000010232,0.21824404609077697
151.329,0.048522,0.13338,-0.112139,-0.002558,idle,5,0.020000000000010232,0.2158044029753869
151.349,0.235146,0.207937,-0.086553,0.039541,idle,5,0.01999999999998181,0.21307882383168672
151.369,0.305959,0.14739,-0.081634,0.061111,idle,5,0.020000000000010232,0.21035115641873384
151.389,0.191089,0.062025,-0.089829,0.061294,idle,5,0.020000000000010232,0.20777120197239798
151.409,0.00069,0.027853,-0.121309,0.054605,idle,5,0.01999999999998181,0.20537003856209013
151.428,-0.133442,0.026327,-0.189478,0.04895,idle,5,0.019000000000005457,0.2031159978531498
151.449,-0.193811,0.020968,-0.249221,0.043354,idle,5,0.021000000000015007,0.20097256763512827
151.468,-0.192381,-0.002248,-0.220022,0.034233,idle,5,0.018999999999977035,0.1989300438721098
151.488,-0.154688,-0.021391,-0.127527,0.023108,idle,5,0.020000000000010232,0.19703502306488288
151.508,-0.113609,-0.021444,-0.073564,0.014198,idle,5,0.020000000000010232,0.19534697866262535
151.528,-0.07712,-0.010704,-0.09301,0.009218,idle,5,0.01999999999998181,0.19394978499251703
151.548,-0.062618,-0.036967,-0.166441,-1.9e-05,idle,5,0.020000000000010232,0.19290083444309636
151.568,-0.090498,-0.07463,-0.162052,-0.014941,idle,5,0.020000000000010232,0.19217365874158301
151.588,-0.124347,-0.089841,-0.131167,-0.029921,idle,5,0.01999999999998181,0.1917117967012309
151.607,-0.111796,-0.060662,-0.172301,-0.03607,idle,5,0.019000000000005457,0.1914481508344886
151.627,-0.075802,0.05097,-0.279977,-0.018662,idle,5,0.020000000000010232,0.19134201793560832
151.647,-0.067815,0.084661,-0.300773,0.002003,idle,5,0.01999999999998181,0.19136628015611298
151.667,-0.079399,0.05255,-0.186479,0.012112,idle,5,0.020000000000010232,0.19143804206464263
151.687,-0.068942,0.020872,-0.074606,0.013864,idle,5,0.020000000000010232,0.1914487141707691
151.707,-0.030886,0.04311,-0.084468,0.019713,idle,5,0.01999999999998181,0.19132427035894814
151.727,0.019979,0.10451,-0.178218,0.036673,idle,5,0.020000000000010232,0.1910112526821752
151.747,0.075504,0.090079,-0.130735,0.047354,idle,5,0.020000000000010232,0.19041114478355453
151.766,0.099496,0.032485,-0.03397,0.04438,idle,5,0.018999999999977035,0.18941150901726006
151.786,0.104465,0.058528,-0.040397,0.04721,idle,5,0.020000000000010232,0.18800257338463638
151.806,0.11614,0.09987,-0.142521,0.057742,idle,5,0.020000000000010232,0.1861897415058143
151.826,0.085964,0.068747,-0.134693,0.059943,idle,5,0.01999999999998181,0.18392154381135437
151.846,0.086009,0.026388,-0.034801,0.053232,idle,5,0.020000000000010232,0.1811604927679777
151.866,0.007623,0.037138,-0.027536,0.050013,idle,5,0.020000000000010232,0.1779482835496286
151.886,-0.045022,-0.008046,-0.101715,0.038401,idle,5,0.01999999999998181,0.17432353041669107
151.906,-0.043753,-0.094717,-0.110753,0.011778,idle,5,0.020000000000010232,0.17031906540933406
151.925,-0.074557,-0.193753,-0.040031,-0.029329,idle,5,0.019000000000005457,0.16609886755480882
151.945,-0.023527,-0.244611,-0.010173,-0.072385,idle,5,0.01999999999998181,0.16192646912165778
151.965,0.125824,-0.28722,0.053795,-0.115352,idle,5,0.020000000000010232,0.15817780688075198
151.985,0.266431,-0.271815,0.082991,-0.146644,idle,5,0.020000000000010232,0.15522645936137502
152.005,0.359035,-0.179793,0.100491,-0.153274,idle,5,0.01999999999998181,0.1530520180066404
152.025,0.315886,-0.207573,0.157717,-0.164134,idle,5,0.020000000000010232,0.1516141608371992
152.045,0.242209,-0.238926,0.117249,-0.179092,idle,5,0.01999999999998181,0.15085959896469134
152.064,0.2041,-0.237287,0.089053,-0.190731,idle,5,0.019000000000005457,0.15067201393101443
152.084,0.116931,-0.195945,0.075877,-0.191774,idle,5,0.020000000000010232,0.1508505409630006
152.104,0.093945,-0.200996,0.054621,-0.193618,idle,5,0.020000000000010232,0.15130224570287032
152.124,0.082212,-0.204883,0.115106,-0.195871,idle,5,0.01999999999998181,0.15200712585153356
152.144,0.074846,-0.16632,0.149421,-0.189961,idle,5,0.020000000000010232,0.15283833617636355
152.164,0.118649,-0.138706,0.137328,-0.17971,idle,5,0.01999999999998181,0.15367061837431734
152.184,0.137064,0.108054,0.406155,-0.122157,idle,5,0.020000000000010232,0.15399143152854194
152.204,0.219241,-0.023537,0.011103,-0.102433,idle,5,0.020000000000010232,0.1542405174782787
152.224,0.043456,-0.055892,0.078127,-0.093125,idle,5,0.01999999999998181,0.15447872325388054
152.243,0.051206,-0.072285,0.184626,-0.088957,idle,5,0.019000000000005457,0.15472878596500936
152.263,0.081417,0.031561,0.09939,-0.064853,idle,5,0.020000000000010232,0.1548792587112848
152.283,0.063973,0.025291,-0.033212,-0.046824,idle,5,0.01999999999998181,0.15496333573074997
152.303,0.018992,0.05523,-0.079489,-0.026414,idle,5,0.020000000000010232,0.15496981905196086
152.323,0.008758,0.10666,-0.093193,0.000201,idle,5,0.020000000000010232,0.15490487410441503
152.343,-0.033342,0.022552,-0.105049,0.004671,idle,5,0.01999999999998181,0.15478158890509486
152.362,-0.033347,0.055179,-0.171177,0.014773,idle,5,0.019000000000005457,0.15457487263179542
152.382,-0.021158,0.078319,-0.179483,0.027482,idle,5,0.020000000000010232,0.15424779957674958
152.402,0.006648,0.131624,-0.080778,0.04831,idle,5,0.01999999999998181,0.15378055818246048
152.422,0.041233,0.158779,0.01352,0.070404,idle,5,0.020000000000010232,0.1531414848967349
152.442,0.084545,0.097342,0.064104,0.075792,idle,5,0.020000000000010232,0.15216526571112374
152.462,0.050242,0.028423,-0.015919,0.066318,idle,5,0.01999999999998181,0.15061868065761405
152.482,-0.105542,0.015261,-0.095976,0.056107,idle,5,0.020000000000010232,0.14840245581114148
152.502,-0.217765,0.025218,-0.091013,0.049929,idle,5,0.020000000000010232,0.1455956682685067
152.521,-0.27883,0.034055,-0.031274,0.046754,idle,5,0.018999999999977035,0.14214490929567858
152.541,-0.270482,0.010768,0.012903,0.039557,idle,5,0.020000000000010232,0.1380230759584331
152.561,-0.199975,0.073208,0.020483,0.046287,idle,5,0.020000000000010232,0.13364159346574045
152.581,-0.014034,0.084201,0.035908,0.05387,idle,5,0.01999999999998181,0.12917417593047886
152.602,0.140253,-0.09869,0.026528,0.023358,idle,5,0.021000000000015007,0.12449886722191905
152.621,0.175115,-0.171634,-0.025948,-0.01564,idle,5,0.019000000000005457,0.11982648412119246
152.641,0.18274,-0.163371,-0.063519,-0.045187,idle,5,0.01999999999998181,0.11555163727373287
152.661,0.114193,-0.122855,-0.060345,-0.06072,idle,5,0.020000000000010232,0.11180541689608334
152.68,-0.009323,-0.04103,-0.100595,-0.056782,idle,5,0.019000000000005457,0.10840156501487966
152.701,-0.092893,0.018559,-0.105641,-0.041714,idle,5,0.020999999999986585,0.10517136871975902
152.72,-0.122546,0.068421,-0.099774,-0.019687,idle,5,0.019000000000005457,0.10208472979677834
152.74,-0.112986,0.0292,-0.051823,-0.00991,idle,5,0.020000000000010232,0.09917228832502632
152.76,-0.078978,-0.072575,0.025969,-0.022443,idle,5,0.01999999999998181,0.09662953617544036
152.78,-0.047791,-0.092341,0.035869,-0.036422,idle,5,0.020000000000010232,0.09470864289128113
152.8,-0.000158,-0.067419,0.040413,-0.042622,idle,5,0.020000000000010232,0.09346438648263242
152.82,0.015414,-0.068693,0.00519,-0.047836,idle,5,0.01999999999998181,0.09279708600660695
152.84,-0.009078,-0.076111,0.022746,-0.053491,idle,5,0.020000000000010232,0.09250939292972304
152.859,-0.015691,-0.098996,0.009778,-0.062592,idle,5,0.019000000000005457,0.09244524142641586
152.879,-0.009565,-0.081672,-0.077739,-0.066408,idle,5,0.01999999999998181,0.09245952377457196
152.899,-0.045044,-0.090957,-0.079733,-0.071318,idle,5,0.020000000000010232,0.09245552097450264
152.919,-0.063928,-0.108739,-0.02868,-0.078802,idle,5,0.020000000000010232,0.09239197171435293
152.939,-0.074794,-0.085503,0.026985,-0.080142,idle,5,0.01999999999998181,0.09225207249010084
152.959,-0.065358,-0.025883,0.041262,-0.06929,idle,5,0.020000000000010232,0.09196879862935253
152.978,-0.105947,-0.08372,0.112187,-0.072176,idle,5,0.019000000000005457,0.09149238673358573
152.999,-0.095868,-0.004942,0.070203,-0.05873,idle,5,0.020999999999986585,0.09070030237861867
153.018,-0.098201,0.009492,0.029214,-0.045085,idle,5,0.019000000000005457,0.0895851732723806
153.038,-0.074434,0.053638,0.021136,-0.025341,idle,5,0.020000000000010232,0.08816880555243653
153.058,-0.069481,0.107871,0.010503,0.001302,idle,5,0.01999999999998181,0.0865235331943528
153.078,-0.037456,0.104362,-0.006977,0.021914,idle,5,0.020000000000010232,0.08471132439668459
153.099,-0.04375,0.118241,-0.055631,0.041179,idle,5,0.020999999999986585,0.08280791065181585
153.118,0.007297,0.07166,-0.053646,0.047275,idle,5,0.019000000000005457,0.08076768878897209
153.137,0.00623,0.03099,0.020701,0.044018,idle,5,0.019000000000005457,0.07854645221835309
153.157,-0.017242,0.072703,-0.031625,0.049755,idle,5,0.020000000000010232,0.07633045337659927
153.177,-0.023325,0.120183,-0.116423,0.063841,idle,5,0.01999999999998181,0.07452906353692385
153.199,-0.070079,0.074841,-0.070485,0.066041,idle,5,0.02200000000001978,0.07334236927469813
153.217,-0.043631,-0.014503,-0.074012,0.049932,idle,5,0.018000000000000682,0.0726644095834483
153.237,-0.027332,-0.100133,-0.074193,0.019919,idle,5,0.01999999999998181,0.07234531391573112
153.257,-0.062184,-0.075732,-0.044875,0.000789,idle,5,0.020000000000010232,0.07224601479949752
153.276,-0.075755,-0.074559,0.06221,-0.014281,idle,5,0.019000000000005457,0.07219354925933286
153.297,0.051918,-0.042714,-0.017021,-0.019967,idle,5,0.020999999999986585,0.0721711505998217
153.316,0.145845,-0.163266,-0.112283,-0.048627,idle,5,0.019000000000005457,0.0722152804221581
153.336,0.056013,-0.372729,-0.09302,-0.113448,idle,5,0.020000000000010232,0.0725826674446547
153.356,0.100975,-0.158868,-0.295799,-0.122532,idle,5,0.01999999999998181,0.07281959685446003
153.376,0.07497,0.120732,-0.278515,-0.073879,idle,5,0.020000000000010232,0.07250529771572826
153.397,-0.048756,0.402961,0.000428,0.021489,idle,5,0.020999999999986585,0.07221912254667208
153.416,0.162368,0.232831,0.153394,0.063757,idle,5,0.019000000000005457,0.0723852434672158
153.435,0.272499,0.200667,0.378423,0.091139,idle,5,0.019000000000005457,0.07298876552827109
153.455,0.237088,0.302049,-0.021248,0.133321,idle,5,0.020000000000010232,0.0744373049564594
153.475,0.036512,0.066563,0.204734,0.11997,idle,5,0.01999999999998181,0.07565581811289092
153.496,0.013718,0.133909,-0.013596,0.122758,idle,5,0.021000000000015007,0.07694033488141422
153.515,0.061531,-0.015538,-0.143167,0.095098,idle,5,0.018999999999977035,0.07774880129841831
153.535,-0.019516,-0.097834,-0.100602,0.056512,idle,5,0.020000000000010232,0.07809658831727803
153.555,-0.033412,-0.077239,-0.097978,0.029762,idle,5,0.020000000000010232,0.07824745169334878
153.575,0.023209,0.04653,-0.087584,0.033115,idle,5,0.01999999999998181,0.07840812504568206
153.595,0.035623,0.099891,0.023815,0.046471,idle,5,0.020000000000010232,0.0786485085768834
153.615,0.086398,0.000178,0.145226,0.037212,idle,5,0.020000000000010232,0.07883503252451562
153.634,0.12672,-0.021332,0.219395,0.025503,idle,5,0.018999999999977035,0.07892562597768685
153.654,0.12901,-0.015588,0.104778,0.017285,idle,5,0.020000000000010232,0.0789460850572835
153.674,0.088826,0.043457,0.120814,0.022519,idle,5,0.020000000000010232,0.07898409332512173
153.694,0.061943,-0.043888,0.122549,0.009238,idle,5,0.01999999999998181,0.07894305878037114
153.714,0.050353,0.050182,0.109213,0.017427,idle,5,0.020000000000010232,0.078836241307434
153.733,0.016889,0.079206,0.049205,0.029783,idle,5,0.019000000000005457,0.07871221048841243
153.754,-0.009775,0.057185,-0.036138,0.035263,idle,5,0.020999999999986585,0.07864615456023932
153.773,-0.043232,0.059471,-0.010103,0.040105,idle,5,0.019000000000005457,0.0785910608609588
153.793,-0.085658,0.130507,0.099469,0.058185,idle,5,0.020000000000010232,0.07859531350608841
153.813,-0.118364,0.225048,0.061815,0.091558,idle,5,0.01999999999998181,0.07896952709374494
153.833,-0.116927,0.178997,-0.11949,0.109046,idle,5,0.020000000000010232,0.07966093074927526
153.853,-0.07107,0.092748,-0.02696,0.105786,idle,5,0.020000000000010232,0.08031925251995037
153.873,0.000699,0.042889,0.219335,0.093207,idle,5,0.01999999999998181,0.08087441212455546
153.893,0.049228,-0.011079,0.296893,0.072349,idle,5,0.020000000000010232,0.08130077376197212
153.913,-0.066397,-0.023331,0.136117,0.053213,idle,5,0.020000000000010232,0.08156360081715508
153.932,-0.213164,-0.008332,-0.094921,0.040904,idle,5,0.018999999999977035,0.08152161765963402
153.952,-0.278512,-0.042582,-0.13463,0.024207,idle,5,0.020000000000010232,0.08093001738847837
153.972,-0.250133,-0.180795,-0.03659,-0.016793,idle,5,0.020000000000010232,0.07976147502689362
153.992,-0.156044,-0.135639,0.032214,-0.040562,idle,5,0.01999999999998181,0.07849542295532441
154.012,-0.0874,-0.072717,0.017482,-0.046993,idle,5,0.020000000000010232,0.07700725690741138
154.032,-0.045668,-0.082463,-0.048233,-0.054087,idle,5,0.020000000000010232,0.07518155550498411
154.051,0.01206,-0.031317,-0.111928,-0.049533,idle,5,0.018999999999977035,0.07296931409456602
154.071,-0.045309,0.030401,-0.049968,-0.033546,idle,5,0.020000000000010232,0.07054321013844123
154.091,-0.066838,-0.075729,0.035999,-0.041983,idle,5,0.020000000000010232,0.06798663672555764
154.111,-0.03329,-0.107706,-0.057064,-0.055128,idle,5,0.01999999999998181,0.06532544319058523
154.131,-0.007307,-0.083,-0.111025,-0.060702,idle,5,0.020000000000010232,0.06275751185224329
154.151,-0.019571,-0.09728,-0.081426,-0.068018,idle,5,0.020000000000010232,0.06045568900985728
154.171,-0.021448,-0.106715,-0.08745,-0.075757,idle,5,0.01999999999998181,0.05966301122982408
154.191,-0.026864,0.061297,-0.110562,-0.048346,idle,5,0.020000000000010232,0.05893969590380872
154.211,-0.029501,0.036469,-0.091661,-0.031383,idle,5,0.020000000000010232,0.05823762307717151
154.23,-0.029914,-0.036121,-0.109776,-0.032331,idle,5,0.018999999999977035,0.05759631225803228
154.25,0.002146,-0.05176,-0.136422,-0.036217,idle,5,0.020000000000010232,0.05731814861853509
154.27,0.057356,-0.117924,-0.126986,-0.052558,idle,5,0.020000000000010232,0.05737321895770534
154.29,0.103762,-0.10989,-0.02972,-0.064025,idle,5,0.01999999999998181,0.057702280472523
154.31,0.082664,-0.060603,-0.004392,-0.06334,idle,5,0.020000000000010232,0.058097808842072635
154.33,0.029148,0.093424,-0.04101,-0.031987,idle,5,0.020000000000010232,0.05820776490060717
154.349,-0.030496,0.078822,-0.014588,-0.009826,idle,5,0.018999999999977035,0.05821131116837193
154.369,-0.032162,0.037111,-0.008787,-0.000438,idle,5,0.020000000000010232,0.05816051430320875
154.389,-0.045471,-0.014298,0.015394,-0.00321,idle,5,0.020000000000010232,0.057982131712666994
154.409,-0.049014,-0.057813,0.032358,-0.014131,idle,5,0.01999999999998181,0.05759540896764793
154.429,-0.026028,-0.034939,-0.007885,-0.018292,idle,5,0.020000000000010232,0.05713687278271179
154.449,-0.010667,-0.074319,-0.003554,-0.029498,idle,5,0.020000000000010232,0.056826242351105526
154.468,0.014079,-0.106752,0.03178,-0.044949,idle,5,0.018999999999977035,0.05671041138435643
154.489,0.008063,-0.076662,0.076397,-0.051291,idle,5,0.021000000000015007,0.056688896525776696
154.509,-0.02057,0.045967,0.072038,-0.03184,idle,5,0.01999999999998181,0.05654544996512719
154.528,-0.002651,0.088929,0.041948,-0.007686,idle,5,0.019000000000005457,0.05638201624792992
154.548,-0.002737,0.03477,0.02297,0.000805,idle,5,0.020000000000010232,0.056158212454677205
154.568,-0.004321,-0.018042,0.036123,-0.002964,idle,5,0.020000000000010232,0.055852434930620594
154.588,-0.014547,-0.033102,0.028124,-0.008992,idle,5,0.01999999999998181,0.055782145969132745
154.608,-0.016512,0.019197,0.00378,-0.003354,idle,5,0.020000000000010232,0.055771970907337536
154.628,-0.013026,0.007758,-0.008758,-0.001132,idle,5,0.01999999999998181,0.05562402606013794
154.648,-0.001098,-0.055448,0.013551,-0.011995,idle,5,0.020000000000010232,0.05533856536874373
154.668,0.021248,-0.116224,0.026062,-0.032841,idle,5,0.020000000000010232,0.055159120187806145
154.688,0.01421,-0.062165,0.001944,-0.038706,idle,5,0.01999999999998181,0.05513899442115056
154.707,-0.005024,0.021487,-0.036611,-0.026667,idle,5,0.019000000000005457,0.05516389360898073
154.727,0.030071,-0.020819,-0.153703,-0.025497,idle,5,0.020000000000010232,0.05520352498728532
154.747,0.19768,-0.192493,-0.180817,-0.058896,idle,5,0.020000000000010232,0.05544708908203047
154.767,0.089099,-0.163737,-0.18288,-0.079865,idle,5,0.01999999999998181,0.055870236145934095
154.787,0.191795,-0.191233,-0.108118,-0.102138,idle,5,0.020000000000010232,0.05659074512076378
154.807,0.15033,-0.151837,-0.092382,-0.112078,idle,5,0.01999999999998181,0.057436977376944316
154.827,0.165121,-0.082527,0.089246,-0.106168,idle,5,0.020000000000010232,0.0581151566886938
154.846,0.184924,-0.148019,0.134445,-0.114538,idle,5,0.019000000000005457,0.058849530352712814
154.866,0.211714,-0.165007,0.116303,-0.124632,idle,5,0.020000000000010232,0.059725010557105655
154.886,0.138766,-0.120254,0.180035,-0.123756,idle,5,0.01999999999998181,0.060515461223325705
154.906,0.126622,-0.124657,0.116801,-0.123937,idle,5,0.020000000000010232,0.061212565538190704
154.931,0.165549,-0.166051,0.0412,-0.132359,idle,5,0.025000000000005684,0.062046639154246644
154.945,0.116945,-0.167243,-0.043535,-0.139336,idle,5,0.013999999999981583,0.06311963632088134
154.965,0.09032,-0.177294,-0.064763,-0.146928,idle,5,0.020000000000010232,0.06429800094211831
154.985,0.117769,-0.111419,-0.053364,-0.139826,idle,5,0.020000000000010232,0.06541415104163702
155.005,0.145604,-0.029815,-0.051128,-0.117824,idle,5,0.01999999999998181,0.06619326568908257
155.025,0.135806,-0.00013,0.005019,-0.094285,idle,5,0.020000000000010232,0.0666903807634365
155.045,0.125726,-0.030721,-0.005223,-0.081572,idle,5,0.01999999999998181,0.06702832314022125
155.065,0.12738,-0.038853,0.036013,-0.073028,idle,5,0.020000000000010232,0.06719300216852808
155.085,0.112609,0.035733,0.022887,-0.051276,idle,5,0.020000000000010232,0.0670549668504449
155.105,0.102803,0.054296,-0.020019,-0.030162,idle,5,0.01999999999998181,0.06677001861393687
155.125,0.032851,0.020607,0.01008,-0.020008,idle,5,0.020000000000010232,0.06649308962181384
155.144,0.008292,0.018865,0.007905,-0.012233,idle,5,0.019000000000005457,0.06615400062295433
155.164,0.061034,0.041163,-0.013926,-0.001554,idle,5,0.01999999999998181,0.06566353919189229
155.184,0.06812,0.064048,-0.029737,0.011566,idle,5,0.020000000000010232,0.06518247722034994
155.204,0.010544,0.062419,-0.034186,0.021737,idle,5,0.020000000000010232,0.06494329931828663
155.224,-0.048945,0.093159,0.05026,0.036021,idle,5,0.01999999999998181,0.06506049348660933
155.243,-0.097572,0.206038,0.115128,0.070025,idle,5,0.019000000000005457,0.06563675932120215
155.263,-0.206422,0.435986,0.231754,0.143217,idle,5,0.020000000000010232,0.0675897354174966
155.283,-0.350202,0.514715,0.310079,0.217517,idle,5,0.01999999999998181,0.07152493532048185
155.304,-0.411676,0.358971,0.001239,0.245808,idle,5,0.021000000000015007,0.07601069454015259
155.323,-0.271892,0.13799,-0.137589,0.224244,idle,5,0.019000000000005457,0.07886977240625564
155.343,-0.371601,0.648081,-0.052657,0.309012,idle,5,0.01999999999998181,0.08415879041541337
155.363,-0.365618,0.591562,0.183943,0.365522,idle,5,0.020000000000010232,0.09159017853372882
155.383,-0.178454,-0.208644,-0.030147,0.250689,idle,5,0.020000000000010232,0.09491829436570626
155.403,0.091855,-0.109988,-0.171141,0.178553,idle,5,0.01999999999998181,0.09634184908532381
155.423,0.178437,0.042115,-0.198466,0.151266,idle,5,0.020000000000010232,0.09707396349960604
155.443,-0.014629,0.085601,-0.010533,0.138133,idle,5,0.020000000000010232,0.09713942205067834
155.462,-0.122546,0.334727,0.198394,0.177451,idle,5,0.018999999999977035,0.09799307521147364
155.482,-0.0166,0.460094,0.063782,0.23398,idle,5,0.020000000000010232,0.09994848752125758
155.503,0.175319,0.251034,-0.255393,0.237391,idle,5,0.020999999999986585,0.10220757804333719
155.522,0.069108,0.102613,-0.113528,0.210435,idle,5,0.019000000000005457,0.10408600077370515
155.542,-0.09558,0.007984,0.08048,0.169945,idle,5,0.020000000000010232,0.10529689217155601
155.562,-0.122987,-0.152877,0.191901,0.105381,idle,5,0.020000000000010232,0.1056972374381477
155.582,0.016839,0.041508,0.317829,0.092606,idle,5,0.01999999999998181,0.10595070274381474
155.602,-0.056306,0.460488,0.231664,0.166182,idle,5,0.020000000000010232,0.10703748440692512
