timestamp,accX,accY,accZ,filteredAccY,phase,repCount,t_diff
0.007,0.001542,-0.047213,0.011633,-0.009443,idle,0,-46.002
0.029,-0.022585,-0.010836,0.025461,-0.009721,idle,0,0.022000000000000002
0.047,-0.042872,0.002236,0.037638,-0.00733,idle,0,0.018
0.067,-0.020053,-0.002264,-0.014994,-0.006316,idle,0,0.020000000000000004
0.091,0.002324,-0.015271,-0.04292,-0.008107,idle,0,0.023999999999999994
0.107,-0.002044,0.004614,-0.047366,-0.005563,idle,0,0.016
0.127,-0.013996,0.027619,-0.017863,0.001073,idle,0,0.020000000000000004
0.146,-0.015101,0.019143,-0.012278,0.004687,idle,0,0.01899999999999999
0.166,0.001703,-0.008097,-0.017357,0.00213,idle,0,0.020000000000000018
0.186,0.006135,0.008999,-0.012383,0.003504,idle,0,0.01999999999999999
0.206,-0.003482,0.036497,0.001698,0.010103,idle,0,0.01999999999999999
0.226,0.002528,0.024978,-0.014661,0.013078,idle,0,0.020000000000000018
0.246,0.01562,-0.003363,-0.026688,0.00979,idle,0,0.01999999999999999
0.266,0.010084,0.009297,-0.022856,0.009691,idle,0,0.020000000000000018
0.286,0.001748,0.037245,-0.004861,0.015202,idle,0,0.019999999999999962
0.305,-0.004716,0.030908,-0.015773,0.018343,idle,0,0.019000000000000017
0.325,0.017654,-0.006848,-0.027791,0.013305,idle,0,0.020000000000000018
0.345,0.039565,-0.016414,-0.052661,0.007361,idle,0,0.019999999999999962
0.365,0.061616,0.004068,-0.069613,0.006703,idle,0,0.020000000000000018
0.385,0.005865,0.065057,-0.055147,0.018373,idle,0,0.020000000000000018
0.407,0.048373,0.049759,-0.076264,0.02465,idle,0,0.021999999999999964
0.428,0.041383,-0.048063,-0.11176,0.010108,idle,0,0.02100000000000002
0.446,0.041568,-0.018722,-0.117906,0.004342,idle,0,0.018000000000000016
0.464,0.00312,0.017183,-0.096441,0.00691,idle,0,0.018000000000000016
0.484,-0.014188,0.134652,-0.086176,0.032458,idle,0,0.019999999999999962
0.504,0.01097,0.051936,-0.092883,0.036354,idle,0,0.020000000000000018
0.524,-0.009068,0.013974,-0.067556,0.031878,idle,0,0.020000000000000018
0.544,0.024843,0.001176,-0.091058,0.025738,idle,0,0.020000000000000018
0.564,-0.02102,0.091019,-0.088108,0.038794,idle,0,0.019999999999999907
0.585,-0.015618,0.193622,-0.051391,0.06976,idle,0,0.02100000000000002
0.604,-0.026929,0.227228,-0.012618,0.101253,idle,0,0.019000000000000017
0.623,-0.02156,0.066253,-0.067741,0.094253,idle,0,0.019000000000000017
0.643,0.008778,0.060637,-0.05614,0.08753,idle,0,0.020000000000000018
0.663,0.015663,0.052592,-0.047427,0.080542,idle,0,0.020000000000000018
0.683,0.016155,0.078425,-0.022486,0.080119,idle,0,0.020000000000000018
0.703,0.025714,-0.012828,0.028767,0.061529,idle,0,0.019999999999999907
0.723,0.029443,-0.001286,0.025021,0.048966,idle,0,0.020000000000000018
0.742,0.037395,0.034582,-0.002621,0.04609,idle,0,0.019000000000000017
0.762,0.019252,0.062077,0.029316,0.049287,idle,0,0.020000000000000018
0.782,0.01661,0.069052,0.040167,0.05324,idle,0,0.020000000000000018
0.802,0.024295,0.015984,0.06302,0.045789,idle,0,0.020000000000000018
0.822,0.031171,-0.022887,0.067029,0.032054,idle,0,0.019999999999999907
0.842,0.034002,0.005797,0.03611,0.026802,idle,0,0.020000000000000018
0.862,0.01993,0.069763,0.027241,0.035394,idle,0,0.020000000000000018
0.882,0.014799,0.037884,0.055923,0.035892,idle,0,0.020000000000000018
0.902,0.012697,-0.020297,0.06736,0.024654,idle,0,0.020000000000000018
0.922,0.007593,-0.05891,0.061304,0.007942,idle,0,0.020000000000000018
0.941,0.018208,-0.012466,0.013467,0.00386,idle,0,0.018999999999999906
0.961,0.03345,0.02798,-0.035226,0.008684,idle,0,0.020000000000000018
0.981,0.076629,-0.011328,-0.050389,0.004682,idle,0,0.020000000000000018
1.001,0.109872,-0.05875,-0.044514,-0.008005,idle,0,0.019999999999999907
1.021,0.13762,-0.052434,-0.034413,-0.016891,idle,0,0.020000000000000018
1.041,0.15078,-0.048225,-0.0223,-0.023157,idle,0,0.020000000000000018
1.06,0.168402,-0.066007,6.5e-05,-0.031727,idle,0,0.019000000000000128
1.08,0.181586,-0.078515,0.018626,-0.041085,idle,0,0.020000000000000018
1.1,0.169152,-0.069212,0.025563,-0.04671,idle,0,0.020000000000000018
1.12,0.162597,-0.037527,0.046884,-0.044874,idle,0,0.020000000000000018
1.14,0.153432,0.009906,0.064511,-0.033918,idle,0,0.019999999999999796
1.16,0.124017,0.036119,0.055755,-0.01991,idle,0,0.020000000000000018
1.18,0.135874,-0.027249,0.036708,-0.021378,idle,0,0.020000000000000018
1.2,0.114423,0.012503,0.066698,-0.014602,idle,0,0.020000000000000018
1.22,0.092599,-0.002437,0.077596,-0.012169,idle,0,0.020000000000000018
1.239,0.063471,0.07609,0.0928,0.005483,idle,0,0.019000000000000128
1.259,0.057651,0.142852,0.04662,0.032957,idle,0,0.019999999999999796
1.28,0.024125,0.069618,0.076617,0.040289,idle,0,0.02100000000000013
1.299,0.013986,0.000677,0.123287,0.032367,idle,0,0.018999999999999906
1.319,0.01533,-0.002085,0.157623,0.025476,idle,0,0.020000000000000018
1.339,0.023118,0.003476,0.096093,0.021076,idle,0,0.020000000000000018
1.359,0.02014,0.083586,0.037737,0.033578,idle,0,0.020000000000000018
1.379,-0.016396,0.063754,0.048143,0.039613,idle,0,0.020000000000000018
1.398,-0.028865,0.038586,0.114051,0.039408,idle,0,0.018999999999999906
1.418,-0.021137,0.017835,0.109912,0.035093,idle,0,0.020000000000000018
1.438,-0.013638,0.017051,0.067283,0.031485,idle,0,0.020000000000000018
1.458,-0.016289,0.084968,0.01764,0.042181,idle,0,0.020000000000000018
1.479,-0.013549,0.125452,0.016374,0.058836,idle,0,0.02100000000000013
1.498,0.015889,0.118348,0.064624,0.070738,idle,0,0.018999999999999906
1.518,0.060756,0.040087,0.075241,0.064608,idle,0,0.020000000000000018
1.538,0.083703,0.032853,0.026745,0.058257,idle,0,0.020000000000000018
1.557,0.091756,0.1358,-0.033302,0.073766,idle,0,0.018999999999999906
1.578,0.077346,0.197641,-0.023239,0.098541,idle,0,0.02100000000000013
1.597,0.071587,0.158993,0.027988,0.110631,idle,0,0.018999999999999906
1.617,0.087047,0.08941,0.037043,0.106387,idle,0,0.020000000000000018
1.637,0.075231,0.056044,0.020891,0.096318,idle,0,0.020000000000000018
1.657,0.0673,0.076268,-0.016667,0.092308,idle,0,0.020000000000000018
1.677,0.062038,0.119945,-0.015259,0.097836,idle,0,0.020000000000000018
1.696,0.120945,0.08392,0.020208,0.095052,idle,0,0.018999999999999906
1.716,0.153709,-0.02,0.005451,0.072042,idle,0,0.020000000000000018
1.736,0.147492,-0.029195,-0.045305,0.051795,idle,0,0.020000000000000018
1.756,0.126928,0.033571,-0.058604,0.04815,idle,0,0.020000000000000018
1.776,0.110835,0.031556,-0.050775,0.044831,idle,0,0.020000000000000018
1.796,0.147617,-0.018208,-0.083971,0.032223,idle,0,0.020000000000000018
1.816,0.183982,-0.067432,-0.135333,0.012292,idle,0,0.020000000000000018
1.836,0.201903,-0.039093,-0.205693,0.002015,idle,0,0.020000000000000018
1.856,0.23862,0.022423,-0.146456,0.006097,idle,0,0.020000000000000018
1.876,0.245822,-0.008964,-0.036078,0.003085,idle,0,0.019999999999999796
1.895,0.275697,-0.098683,-0.008564,-0.017269,idle,0,0.019000000000000128
1.915,0.306449,-0.043143,-0.050059,-0.022444,idle,0,0.020000000000000018
1.935,0.304121,0.038871,-0.010139,-0.010181,idle,0,0.020000000000000018
1.955,0.289289,0.1266,0.024644,0.017175,idle,0,0.020000000000000018
1.975,0.291563,0.157906,0.037854,0.045321,idle,0,0.020000000000000018
1.995,0.288404,0.131668,0.039446,0.062591,idle,0,0.020000000000000018
2.015,0.259264,0.088005,0.083345,0.067674,idle,0,0.020000000000000018
2.034,0.211585,0.021924,0.103133,0.058524,idle,0,0.018999999999999684
2.054,0.183462,0.00863,0.089019,0.048545,idle,0,0.020000000000000018
2.075,0.138653,0.084744,0.059859,0.055785,idle,0,0.02100000000000035
2.094,0.073777,0.207963,0.058169,0.08622,idle,0,0.018999999999999684
2.114,0.011827,0.221203,0.097681,0.113217,idle,0,0.020000000000000018
2.134,-0.032428,0.137305,0.173152,0.118034,idle,0,0.020000000000000018
2.154,-0.091224,0.084571,0.196691,0.111342,idle,0,0.020000000000000018
2.174,-0.09099,0.093141,0.17371,0.107701,idle,0,0.020000000000000018
2.193,-0.059605,0.154767,0.161678,0.117115,idle,0,0.019000000000000128
2.213,-0.049776,0.164657,0.235177,0.126623,idle,0,0.020000000000000018
2.233,-0.122878,0.138213,0.308764,0.128941,idle,0,0.020000000000000018
2.253,-0.213331,0.081129,0.332049,0.119379,idle,0,0.020000000000000018
2.273,-0.258802,0.01332,0.325398,0.098167,idle,0,0.020000000000000018
2.293,-0.257691,0.097108,0.323307,0.097955,idle,0,0.020000000000000018
2.312,-0.227049,0.188248,0.317609,0.116014,idle,0,0.018999999999999684
2.333,-0.224532,0.090984,0.376677,0.111008,idle,0,0.02100000000000035
2.352,-0.209733,-0.056918,0.434145,0.077423,idle,0,0.018999999999999684
2.373,-0.191648,-0.092397,0.429519,0.043459,idle,0,0.02100000000000035
2.392,-0.151674,-0.072862,0.379172,0.020195,idle,0,0.018999999999999684
2.412,-0.09195,-0.018257,0.228679,0.012504,idle,0,0.020000000000000018
2.432,-0.034648,0.043506,0.110967,0.018705,idle,0,0.020000000000000018
2.452,-0.074674,-0.040596,0.132854,0.006844,idle,0,0.020000000000000018
2.472,-0.118001,-0.1004,0.153143,-0.014604,idle,0,0.020000000000000018
2.491,-0.05925,-0.048232,0.086803,-0.02133,idle,0,0.019000000000000128
2.511,0.001926,0.083398,-0.10337,-0.000384,idle,0,0.020000000000000018
2.531,0.03227,0.145034,-0.177121,0.028699,idle,0,0.020000000000000018
2.551,-0.056643,-0.128325,0.130099,-0.002705,idle,0,0.020000000000000018
2.571,-0.147355,-0.179113,0.243809,-0.037987,idle,0,0.020000000000000018
2.591,-0.070049,-0.031807,0.168315,-0.036751,idle,0,0.020000000000000018
2.611,-0.024622,-0.0414,0.050945,-0.037681,idle,0,0.020000000000000018
2.631,-0.003985,-0.095409,0.049039,-0.049226,idle,0,0.019999999999999574
2.65,-0.004356,-0.117168,0.056189,-0.062815,idle,0,0.019000000000000128
2.67,-0.007728,-0.046724,0.071379,-0.059597,idle,0,0.020000000000000018
2.69,-0.027876,0.018066,0.09112,-0.044064,idle,0,0.020000000000000018
2.71,-0.033517,0.026071,0.043155,-0.030037,idle,0,0.020000000000000018
2.73,0.023823,-0.005103,-0.045709,-0.02505,idle,0,0.020000000000000018
2.75,0.046058,-0.032229,0.014469,-0.026486,idle,0,0.020000000000000018
2.769,-0.015465,-0.054187,0.060812,-0.032026,idle,0,0.019000000000000128
2.79,-0.042654,-0.0388,0.168098,-0.033381,idle,0,0.020999999999999908
2.81,-0.067274,0.011044,0.186689,-0.024496,idle,0,0.020000000000000018
2.829,-0.045639,0.051174,0.09513,-0.009362,idle,0,0.019000000000000128
2.849,-0.024611,-0.001382,0.060548,-0.007766,idle,0,0.020000000000000018
2.869,-0.01581,-0.005536,0.115556,-0.00732,idle,0,0.020000000000000018
2.889,-0.016919,0.025983,0.164953,-0.000659,idle,0,0.019999999999999574
2.909,-0.024195,0.060976,0.135671,0.011668,idle,0,0.020000000000000018
2.929,0.025671,0.042826,0.071434,0.017899,idle,0,0.020000000000000018
2.948,0.072753,0.005883,0.048863,0.015496,idle,0,0.019000000000000128
2.968,0.031568,0.031786,0.046356,0.018754,idle,0,0.020000000000000018
2.989,0.03772,0.043689,0.031037,0.023741,idle,0,0.020999999999999908
3.008,0.059786,0.047243,0.022117,0.028441,idle,0,0.019000000000000128
3.028,0.051754,0.034471,0.018439,0.029647,idle,0,0.020000000000000018
3.048,0.062094,0.049498,-0.002841,0.033617,idle,0,0.020000000000000018
3.068,0.059761,0.080137,0.05588,0.042921,idle,0,0.020000000000000018
3.088,0.056056,0.086945,0.027766,0.051726,idle,0,0.020000000000000018
3.107,0.039512,0.063708,-0.003572,0.054123,idle,0,0.019000000000000128
3.127,0.057123,0.037979,-0.005804,0.050894,idle,0,0.019999999999999574
3.147,0.09478,-0.046271,0.028459,0.031461,idle,0,0.020000000000000018
3.167,0.105963,0.005261,0.089004,0.026221,idle,0,0.020000000000000018
3.187,0.056855,0.058483,0.008092,0.032673,idle,0,0.020000000000000018
3.207,0.009699,0.21193,-0.070781,0.068525,idle,0,0.020000000000000018
3.226,-0.005659,0.087554,-0.003203,0.07233,idle,0,0.019000000000000128
3.246,0.005307,-0.032961,0.069305,0.051272,idle,0,0.020000000000000018
3.266,0.024495,0.078876,0.019651,0.056793,idle,0,0.020000000000000018
3.286,-0.01135,-0.010484,0.053353,0.043337,idle,0,0.020000000000000018
3.306,-0.033432,0.044048,-0.004818,0.04348,idle,0,0.020000000000000018
3.326,-0.011807,-0.094494,-0.064736,0.015885,idle,0,0.020000000000000018
3.346,0.011857,-0.22492,-0.013119,-0.032276,idle,0,0.020000000000000018
3.366,-0.001561,0.113883,-0.013476,-0.003044,idle,0,0.020000000000000018
3.386,-0.028707,0.182453,-0.051935,0.034055,idle,0,0.020000000000000018
3.406,-0.035446,0.200604,-0.022253,0.067365,idle,0,0.020000000000000018
3.425,-0.0112,-0.11754,-0.062232,0.030384,idle,0,0.018999999999999684
3.445,-0.037394,-0.268362,0.081263,-0.029365,idle,0,0.020000000000000018
3.465,-0.036868,0.0656,-0.066856,-0.010372,idle,0,0.020000000000000018
3.485,-0.022676,0.088846,-0.071494,0.009471,idle,0,0.020000000000000018
3.505,0.0132,-0.016282,0.015209,0.004321,idle,0,0.020000000000000018
3.525,0.031633,-0.136034,0.051444,-0.02375,idle,0,0.020000000000000018
3.545,0.003527,-0.156628,-0.004436,-0.050326,idle,0,0.020000000000000018
3.564,0.008739,0.147994,-0.110929,-0.010662,idle,0,0.019000000000000128
3.584,0.069885,0.094117,0.005284,0.010294,idle,0,0.020000000000000018
3.604,0.123271,0.145563,0.032113,0.037348,idle,0,0.020000000000000018
3.624,0.077753,0.216039,-0.110212,0.073086,idle,0,0.020000000000000018
3.644,-0.049995,0.089321,-0.035697,0.076333,idle,0,0.020000000000000018
3.664,-0.066188,0.074275,0.036178,0.075922,idle,0,0.020000000000000018
3.683,-0.111406,0.013659,0.095153,0.063469,idle,0,0.018999999999999684
3.703,-0.182603,-0.115856,0.123733,0.027604,idle,0,0.020000000000000018
3.723,-0.179545,-0.126469,0.074231,-0.003211,idle,0,0.020000000000000018
3.743,-0.19818,0.052089,-0.010732,0.007849,idle,0,0.020000000000000018
3.763,-0.185545,0.039797,-0.065254,0.014239,idle,0,0.020000000000000018
3.783,-0.151825,-0.054226,-0.082629,0.000546,idle,0,0.020000000000000018
3.803,-0.105531,-0.200143,-0.081731,-0.039592,idle,0,0.020000000000000018
3.823,-0.118296,-0.252427,0.06014,-0.082159,idle,0,0.020000000000000018
3.843,-0.077674,-0.081371,0.233056,-0.082001,idle,0,0.020000000000000018
3.862,-0.048709,0.358933,0.346184,0.006185,idle,0,0.019000000000000128
3.882,0.07002,0.007154,0.034118,0.006379,idle,0,0.020000000000000018
3.902,0.13616,-0.404986,0.131245,-0.075894,idle,0,0.020000000000000018
3.922,0.094171,0.030353,-0.123713,-0.054645,idle,0,0.020000000000000018
3.942,0.190349,0.207607,-0.271859,-0.002194,idle,0,0.020000000000000018
3.962,0.139869,0.244802,-0.261001,0.047205,idle,0,0.020000000000000018
3.982,0.123819,-0.123475,0.226765,0.013069,idle,0,0.020000000000000018
4.002,0.213561,-0.215378,0.463903,-0.03262,idle,0,0.019999999999999574
4.022,0.038936,0.060613,0.230443,-0.013974,idle,0,0.020000000000000462
4.041,-0.117983,-0.026733,0.125932,-0.016526,idle,0,0.019000000000000128
4.061,0.506608,0.073024,-0.285891,0.001384,idle,0,0.019999999999999574
4.081,0.464009,0.092281,-0.274608,0.019564,idle,0,0.020000000000000462
4.101,0.10892,0.12053,-0.273926,0.039757,idle,0,0.019999999999999574
4.121,-0.00754,0.238571,-0.159951,0.07952,idle,0,0.020000000000000462
4.141,-0.108109,0.067033,-0.156084,0.077022,idle,0,0.019999999999999574
4.161,-0.183611,-0.021452,-0.143477,0.057327,idle,0,0.019999999999999574
4.181,-0.121389,0.045889,-0.054924,0.05504,idle,0,0.020000000000000462
4.201,-0.023203,0.061231,0.079103,0.056278,idle,0,0.019999999999999574
4.22,0.054374,-0.133866,0.142572,0.018249,idle,0,0.019000000000000128
4.24,0.233587,0.18352,0.057659,0.051303,idle,0,0.020000000000000462
4.26,-0.399577,0.128391,0.132338,0.066721,idle,0,0.019999999999999574
4.282,-0.149924,-0.02309,0.176493,0.048759,idle,0,0.02200000000000024
4.3,0.034696,-0.188192,0.118464,0.001369,idle,0,0.017999999999999794
4.319,0.15178,0.151901,0.519287,0.031475,idle,0,0.019000000000000128
4.339,0.121528,-0.13721,0.395833,-0.002262,idle,0,0.020000000000000462
4.359,0.192329,-0.009113,0.155185,-0.003632,idle,0,0.019999999999999574
4.379,-0.017126,0.05939,-0.031496,0.008972,idle,0,0.019999999999999574
4.399,-0.011387,0.016706,-0.103207,0.010519,idle,0,0.020000000000000462
4.419,-0.075838,-0.045003,-0.034024,-0.000585,idle,0,0.019999999999999574
4.439,-0.011651,-0.038111,-0.105224,-0.00809,idle,0,0.020000000000000462
4.458,0.027238,0.03581,-0.08081,0.00069,idle,0,0.019000000000000128
4.479,0.010205,0.038203,-0.030706,0.008192,idle,0,0.020999999999999908
4.499,0.025009,-0.000223,0.106647,0.006509,idle,0,0.019999999999999574
4.518,-0.062707,-0.01506,0.073106,0.002195,idle,0,0.019000000000000128
4.538,0.024878,0.033833,0.019987,0.008523,idle,0,0.020000000000000462
4.558,0.021973,0.012802,0.100673,0.009379,idle,0,0.019999999999999574
4.578,-0.013327,-0.011821,0.036925,0.005139,idle,0,0.020000000000000462
4.598,-0.022901,0.022291,-0.031896,0.008569,idle,0,0.019999999999999574
4.618,0.018892,0.023054,-0.056622,0.011466,idle,0,0.020000000000000462
4.637,-0.085019,0.000756,-0.028196,0.009324,idle,0,0.01899999999999924
4.657,-0.016433,0.000376,-0.047167,0.007534,idle,0,0.020000000000000462
4.678,0.033354,0.024704,-0.131594,0.010968,idle,0,0.020999999999999908
4.697,-0.078306,-0.009959,-0.101209,0.006783,idle,0,0.019000000000000128
4.717,0.045865,0.031187,-0.031985,0.011664,idle,0,0.019999999999999574
4.737,0.006106,-0.024148,-0.033467,0.004501,idle,0,0.020000000000000462
4.757,-0.119403,-0.062963,-0.129637,-0.008992,idle,0,0.019999999999999574
4.777,-0.005802,0.073897,-0.058626,0.007586,idle,0,0.020000000000000462
4.797,0.047867,-0.047728,0.016096,-0.003477,idle,0,0.019999999999999574
4.816,-0.020298,-0.048054,-0.024177,-0.012392,idle,0,0.019000000000000128
4.836,-0.028231,-0.02133,-0.025845,-0.01418,idle,0,0.020000000000000462
4.856,-0.036556,-0.033319,0.082793,-0.018008,idle,0,0.019999999999999574
4.876,0.047847,0.038486,-0.006282,-0.006709,idle,0,0.020000000000000462
4.896,0.029286,-0.034454,0.050828,-0.012258,idle,0,0.019999999999999574
4.916,-0.104684,-0.091992,0.048067,-0.028205,idle,0,0.020000000000000462
4.936,-0.03996,0.029229,0.055418,-0.016718,idle,0,0.019999999999999574
4.956,0.046711,0.049309,-0.041596,-0.003513,idle,0,0.020000000000000462
4.976,0.105817,0.02868,-0.068772,0.002926,idle,0,0.019999999999999574
4.996,-0.078013,-0.00927,0.117403,0.000487,idle,0,0.020000000000000462
5.015,-0.013566,-0.001992,0.098838,-9e-06,idle,0,0.01899999999999924
5.035,0.007296,0.022128,-0.000307,0.004418,idle,0,0.020000000000000462
5.055,0.127147,0.012676,-0.106192,0.00607,idle,0,0.019999999999999574
5.075,-0.003683,-0.014998,0.001882,0.001856,idle,0,0.020000000000000462
5.094,-0.061914,0.010017,0.062263,0.003488,idle,0,0.019000000000000128
5.114,-0.064538,0.011705,-0.08338,0.005132,idle,0,0.019999999999999574
5.134,-0.013166,0.024819,0.04966,0.009069,idle,0,0.020000000000000462
5.154,0.068488,-0.008413,-0.058458,0.005573,idle,0,0.019999999999999574
5.174,0.09462,-0.065639,0.073927,-0.00867,idle,0,0.020000000000000462
5.195,-0.067082,0.007012,0.016354,-0.005533,idle,0,0.020999999999999908
5.214,-0.047451,0.188149,-0.02467,0.033203,idle,0,0.019000000000000128
5.234,-0.117653,0.039516,0.111877,0.034466,idle,0,0.019999999999999574
5.253,0.013029,-0.034243,0.154817,0.020724,idle,0,0.019000000000000128
5.274,0.116468,0.068087,0.034909,0.030197,idle,0,0.020999999999999908
5.294,0.172549,0.126367,-0.002647,0.049431,idle,0,0.019999999999999574
5.313,0.084064,0.176771,-0.011366,0.074899,idle,0,0.019000000000000128
5.333,-0.005446,0.068813,-0.082687,0.073682,idle,0,0.020000000000000462
5.353,-0.040631,0.071925,-0.10929,0.07333,idle,0,0.019999999999999574
5.373,-0.104654,0.131158,0.07105,0.084896,idle,0,0.020000000000000462
5.393,-0.157026,-0.117091,0.090057,0.044498,idle,0,0.019999999999999574
5.412,-0.109996,-0.292248,-0.006979,-0.022851,idle,0,0.019000000000000128
5.432,-0.001437,-0.125754,-0.024617,-0.043432,idle,0,0.020000000000000462
5.452,-0.155139,0.067586,0.066296,-0.021228,idle,0,0.019999999999999574
5.472,-0.271931,-0.11007,-0.134673,-0.038996,idle,0,0.020000000000000462
5.492,-0.212665,-0.246343,-0.001908,-0.080466,idle,0,0.019999999999999574
5.512,0.024202,-0.192353,0.434561,-0.102843,idle,0,0.019999999999999574
5.532,0.615599,0.252902,0.244736,-0.031694,idle,0,0.020000000000000462
5.552,0.670447,0.25903,0.007603,0.026451,idle,0,0.019999999999999574
5.572,-0.013896,-0.026112,-0.149555,0.015938,idle,0,0.020000000000000462
5.591,-0.026615,0.279039,-0.268135,0.068558,idle,0,0.019000000000000128
5.611,-0.340331,-0.062679,-0.10718,0.042311,idle,0,0.019999999999999574
5.631,-0.166679,-0.141428,0.055576,0.005563,idle,0,0.020000000000000462
5.651,0.15602,0.1256,-0.166373,0.02957,idle,0,0.019999999999999574
5.671,0.077004,0.014839,-0.143946,0.026624,idle,0,0.020000000000000462
5.691,-0.116537,0.185932,-0.171306,0.058486,idle,0,0.019999999999999574
5.711,-0.087997,0.127132,-0.05104,0.072215,idle,0,0.020000000000000462
5.731,0.044053,-0.016918,0.143925,0.054389,idle,0,0.019999999999999574
5.75,0.002197,-0.108956,0.164734,0.02172,idle,0,0.019000000000000128
5.77,-0.041822,-0.139711,0.072764,-0.010566,idle,0,0.019999999999999574
5.79,0.032864,0.063976,-0.086689,0.004342,idle,0,0.020000000000000462
5.81,-0.008544,0.038858,0.1852,0.011245,idle,0,0.019999999999999574
5.83,-0.038856,0.037594,0.122845,0.016515,idle,0,0.020000000000000462
5.85,-0.080192,0.015715,0.093972,0.016355,idle,0,0.019999999999999574
5.87,0.064946,-0.064973,0.021293,8.9e-05,idle,0,0.020000000000000462
5.889,0.153824,0.086257,0.276764,0.017323,idle,0,0.019000000000000128
5.909,0.060974,0.038988,0.149487,0.021656,idle,0,0.019999999999999574
5.929,-0.139525,-0.091138,-0.141224,-0.000903,idle,0,0.020000000000000462
5.949,-0.08224,0.020948,-0.185435,0.003467,idle,0,0.019999999999999574
5.969,0.02471,0.012114,0.09359,0.005197,idle,0,0.020000000000000462
5.989,0.000683,0.026788,0.161921,0.009515,idle,0,0.019999999999999574
6.009,-0.014827,-0.016679,0.007378,0.004276,idle,0,0.020000000000000462
6.029,-0.040868,-0.097806,-0.30462,-0.01614,idle,0,0.019999999999999574
6.048,-0.015107,0.10511,0.084154,0.00811,idle,0,0.019000000000000128
6.068,-0.13772,-0.036516,0.184093,-0.000815,idle,0,0.019999999999999574
6.088,0.007703,-0.034034,-0.071325,-0.007459,idle,0,0.020000000000000462
6.108,0.068828,-0.112116,-0.317437,-0.02839,idle,0,0.019999999999999574
6.128,0.046038,0.222187,0.224346,0.021725,idle,0,0.020000000000000462
6.148,-0.060986,0.096668,0.132492,0.036714,idle,0,0.019999999999999574
6.168,-0.035854,-0.164744,-0.117186,-0.003578,idle,0,0.020000000000000462
6.187,0.081862,-0.037059,-0.150506,-0.010274,idle,0,0.019000000000000128
6.207,0.127598,0.085855,0.186852,0.008952,idle,0,0.019999999999999574
6.227,-0.126827,0.033139,0.049334,0.013789,idle,0,0.020000000000000462
6.247,0.05253,-0.034871,0.256956,0.004057,idle,0,0.019999999999999574
6.267,0.011916,-0.006876,-0.070389,0.001871,idle,0,0.020000000000000462
6.287,0.0428,0.053775,-0.034551,0.012251,idle,0,0.019999999999999574
6.307,-0.19058,0.059954,0.017938,0.021792,idle,0,0.020000000000000462
6.326,0.093152,-0.175433,-0.07764,-0.017653,idle,0,0.01899999999999924
6.346,-0.136688,0.149414,-0.05519,0.015761,idle,0,0.020000000000000462
6.366,-0.263707,0.176519,0.258275,0.047912,idle,0,0.019999999999999574
6.386,-0.1922,0.174029,0.129323,0.073136,idle,0,0.020000000000000462
6.406,-0.023226,0.027354,0.016773,0.063979,idle,0,0.019999999999999574
6.426,-0.032419,0.003809,0.055129,0.051945,idle,0,0.020000000000000462
6.446,-0.136075,0.207334,0.107289,0.083023,idle,0,0.019999999999999574
6.466,-0.051615,0.021592,-0.050499,0.070737,idle,0,0.020000000000000462
6.486,0.183192,-0.134887,-0.006205,0.029612,idle,0,0.019999999999999574
6.506,0.084411,0.036165,-0.066867,0.030923,idle,0,0.020000000000000462
6.525,0.013951,0.154065,0.225763,0.055551,idle,0,0.019000000000000128
6.545,0.000558,0.047923,0.279832,0.054025,idle,0,0.019999999999999574
6.565,0.274149,-0.194899,-0.065227,0.00424,idle,0,0.020000000000000462
6.585,0.127132,-0.099805,0.017738,-0.016569,idle,0,0.019999999999999574
6.605,0.057681,0.220785,0.291613,0.030902,idle,0,0.020000000000000462
6.625,0.0603,0.133045,0.253662,0.051331,idle,0,0.019999999999999574
6.644,0.084428,-0.100313,0.085326,0.021002,idle,0,0.019000000000000128
6.664,0.119307,-0.204995,-0.19927,-0.024198,idle,0,0.019999999999999574
6.684,0.004103,-0.049218,0.241213,-0.029202,idle,0,0.020000000000000462
6.704,-0.047425,0.273202,0.1877,0.031279,idle,0,0.019999999999999574
6.724,-0.028616,0.041887,-0.033191,0.033401,idle,0,0.020000000000000462
6.744,0.066618,-0.211153,-0.372987,-0.01551,idle,0,0.019999999999999574
6.764,0.012659,-0.07285,0.036873,-0.026978,idle,0,0.020000000000000462
6.784,-0.066133,0.124079,0.064228,0.003233,idle,0,0.019999999999999574
6.804,0.019401,0.071827,-0.111212,0.016952,idle,0,0.020000000000000462
6.823,0.01658,-0.101809,-0.13594,-0.0068,idle,0,0.019000000000000128
6.843,0.022665,-0.09987,0.020304,-0.025414,idle,0,0.019999999999999574
6.863,0.034418,0.036828,-0.01704,-0.012966,idle,0,0.020000000000000462
6.884,-0.033827,0.012684,-0.031892,-0.007836,idle,0,0.020999999999999908
6.903,0.034147,-0.137942,-0.094344,-0.033857,idle,0,0.01899999999999924
6.923,0.048578,-0.023411,-0.043228,-0.031768,idle,0,0.020000000000000462
6.943,0.030718,-0.011102,0.028792,-0.027635,idle,0,0.019999999999999574
6.964,0.037942,0.036371,-0.013625,-0.014834,idle,0,0.021000000000000796
6.983,0.03458,-0.059149,-0.0202,-0.023697,idle,0,0.01899999999999924
7.003,0.038278,-0.06722,-0.073686,-0.032401,idle,0,0.020000000000000462
7.022,-0.007737,-0.041737,-0.025493,-0.034268,idle,0,0.019000000000000128
7.042,0.022011,0.02077,0.019966,-0.023261,idle,0,0.019999999999999574
7.062,0.029787,0.041279,-0.006509,-0.010353,idle,0,0.020000000000000462
7.082,-0.009903,-0.061928,-0.044432,-0.020668,idle,0,0.019999999999999574
7.101,-0.000112,-0.033657,-0.082817,-0.023266,idle,0,0.019000000000000128
7.121,-0.027528,0.007734,-0.029346,-0.017066,idle,0,0.020000000000000462
7.141,-0.006769,0.028314,0.005786,-0.00799,idle,0,0.019999999999999574
7.161,-0.006268,0.019303,-0.000125,-0.002531,idle,0,0.019999999999999574
7.181,-0.001112,-0.016496,-0.103315,-0.005324,idle,0,0.020000000000000462
7.201,-0.031892,-0.036129,-0.060412,-0.011485,idle,0,0.019999999999999574
7.221,0.011873,0.016609,0.030887,-0.005866,idle,0,0.020000000000000462
7.24,-0.00133,0.041828,0.003976,0.003673,idle,0,0.019000000000000128
7.261,-0.001578,-0.030808,-0.059314,-0.003223,idle,0,0.020999999999999908
7.281,0.044511,-0.004901,-0.076904,-0.003559,idle,0,0.019999999999999574
7.301,-0.007978,-0.008888,0.040946,-0.004625,idle,0,0.020000000000000462
7.32,0.005666,0.016932,0.049023,-0.000313,idle,0,0.019000000000000128
7.34,0.029334,0.012531,-0.009594,0.002255,idle,0,0.019999999999999574
7.36,0.017354,-0.026588,-0.042674,-0.003513,idle,0,0.020000000000000462
7.38,0.018946,0.000414,0.059695,-0.002728,idle,0,0.019999999999999574
7.4,-0.016553,0.049028,0.069438,0.007623,idle,0,0.020000000000000462
7.42,0.030813,0.023223,-0.009258,0.010743,idle,0,0.019999999999999574
7.439,-0.000117,0.011967,-0.012716,0.010988,idle,0,0.019000000000000128
7.459,0.01393,0.003461,0.049338,0.009483,idle,0,0.019999999999999574
7.479,0.008108,0.02831,0.006185,0.013248,idle,0,0.020000000000000462
7.499,0.007857,0.02113,-0.005048,0.014824,idle,0,0.019999999999999574
7.519,0.037041,-0.014208,0.000256,0.009018,idle,0,0.020000000000000462
7.539,0.023105,0.005019,0.07987,0.008218,idle,0,0.019999999999999574
7.559,0.021151,0.035138,0.034778,0.013602,idle,0,0.020000000000000462
7.579,0.036318,0.002728,-0.018598,0.011427,idle,0,0.019999999999999574
7.599,0.033662,-0.031244,0.084209,0.002893,idle,0,0.020000000000000462
7.618,0.066376,0.014665,0.164365,0.005247,idle,0,0.019000000000000128
7.638,0.048982,0.041939,-0.025301,0.012586,idle,0,0.019999999999999574
7.658,0.080077,-0.029171,0.004365,0.004234,idle,0,0.020000000000000462
7.678,0.125658,-0.001839,0.035365,0.00302,idle,0,0.019999999999999574
7.698,0.071213,0.002421,0.071635,0.0029,idle,0,0.020000000000000462
7.718,0.069363,0.056656,0.069035,0.013651,idle,0,0.019999999999999574
7.737,0.264474,-0.023081,-0.027774,0.006305,idle,0,0.019000000000000128
7.757,0.179043,-0.040275,0.095677,-0.003011,idle,0,0.019999999999999574
7.777,-0.010147,0.074886,-0.073552,0.012568,idle,0,0.020000000000000462
7.797,0.252077,-0.088901,0.051096,-0.007726,idle,0,0.019999999999999574
7.817,0.270058,0.112725,0.201081,0.016364,idle,0,0.020000000000000462
7.837,0.101751,0.0401,0.148001,0.021111,idle,0,0.019999999999999574
7.857,0.034033,-0.02945,-0.247575,0.010999,idle,0,0.020000000000000462
7.877,0.221734,-0.129979,-0.179259,-0.017196,idle,0,0.019999999999999574
7.897,0.161157,0.116718,0.333936,0.009586,idle,0,0.020000000000000462
7.916,-0.145257,0.211483,0.109702,0.049966,idle,0,0.019000000000000128
7.936,0.060067,-0.199093,-0.350835,0.000154,idle,0,0.019999999999999574
7.956,0.28388,-0.109288,-0.270985,-0.021735,idle,0,0.020000000000000462
7.976,-0.057628,0.174929,0.549913,0.017598,idle,0,0.019999999999999574
7.996,-0.352451,0.151965,0.196408,0.044472,idle,0,0.020000000000000462
8.016,0.225837,-0.018941,-0.255105,0.031789,idle,0,0.019999999999999574
8.035,0.135555,-0.18363,-0.30351,-0.011295,idle,0,0.019000000000000128
8.055,-0.138385,0.036004,0.233312,-0.001835,idle,0,0.019999999999999574
8.075,-0.294177,0.263651,0.327733,0.051262,idle,0,0.019999999999999574
8.095,0.023472,-0.085872,-0.186082,0.023835,idle,0,0.02000000000000135
8.115,0.108824,-0.003838,-0.148485,0.018301,idle,0,0.019999999999999574
8.135,-0.177341,-0.014583,0.11975,0.011724,idle,0,0.019999999999999574
8.155,-0.256687,-0.064083,-0.066271,-0.003437,idle,0,0.019999999999999574
8.175,0.085345,0.092817,-0.01062,0.015814,idle,0,0.02000000000000135
8.195,0.05658,0.111933,0.025815,0.035037,idle,0,0.019999999999999574
8.214,-0.203402,-0.032141,0.02776,0.021602,idle,0,0.019000000000000128
8.234,-0.120106,-0.110962,-0.106867,-0.004911,idle,0,0.019999999999999574
8.254,0.036937,-0.025474,-0.114675,-0.009024,idle,0,0.019999999999999574
8.274,0.072048,0.164646,0.067718,0.02571,idle,0,0.019999999999999574
8.294,-0.144254,-0.065508,0.074364,0.007467,idle,0,0.02000000000000135
8.314,-0.106621,-0.176655,-0.134113,-0.029358,idle,0,0.019999999999999574
8.334,0.080304,0.13076,-0.088928,0.002666,idle,0,0.019999999999999574
8.354,-0.08441,0.068485,0.105313,0.01583,idle,0,0.019999999999999574
8.374,-0.164086,-0.059126,0.069969,0.000839,idle,0,0.02000000000000135
8.393,-0.157308,-0.117916,-0.161583,-0.022912,idle,0,0.019000000000000128
8.413,-0.025538,0.082022,-0.006179,-0.001926,idle,0,0.019999999999999574
8.433,-0.149287,0.003814,0.09702,-0.000778,idle,0,0.019999999999999574
8.453,-0.205719,-0.092972,-0.178312,-0.019216,idle,0,0.019999999999999574
8.473,-0.150416,-0.119253,-0.238285,-0.039224,idle,0,0.02000000000000135
8.493,-0.131653,0.037835,-0.004302,-0.023812,idle,0,0.019999999999999574
8.512,-0.216092,0.003213,-0.025937,-0.018407,idle,0,0.019000000000000128
8.532,-0.325629,-0.107563,-0.029487,-0.036238,idle,0,0.019999999999999574
8.552,-0.005341,-0.018172,-0.108276,-0.032625,idle,0,0.019999999999999574
8.572,-0.239683,0.108027,0.013315,-0.004495,idle,0,0.019999999999999574
8.592,-0.175699,-0.087215,-0.137762,-0.021039,idle,0,0.02000000000000135
8.612,-0.209333,-0.132538,-0.056562,-0.043339,idle,0,0.019999999999999574
8.632,0.05446,0.047226,-0.091505,-0.025226,idle,0,0.019999999999999574
8.652,-0.255888,-0.108339,-0.032101,-0.041848,idle,0,0.019999999999999574
8.672,-0.225144,0.048969,-0.115975,-0.023685,idle,0,0.02000000000000135
8.691,-0.005823,-0.084931,-0.031288,-0.035934,idle,0,0.019000000000000128
8.711,0.010384,0.133584,0.057343,-0.00203,idle,0,0.019999999999999574
8.731,-0.13859,-0.052221,-0.020248,-0.012069,idle,0,0.019999999999999574
8.751,-0.131182,-0.021598,-0.048993,-0.013975,idle,0,0.019999999999999574
8.771,-0.022918,-0.040648,-0.064885,-0.019309,idle,0,0.02000000000000135
8.791,-0.02513,0.084698,0.072836,0.001492,idle,0,0.019999999999999574
8.811,-0.07353,-0.020616,-0.078422,-0.002929,idle,0,0.019999999999999574
8.83,-0.185408,0.066558,-0.037108,0.010968,idle,0,0.019000000000000128
8.85,0.06225,-0.123618,-0.051075,-0.015949,idle,0,0.019999999999999574
8.87,-0.070703,0.09607,0.07515,0.006455,idle,0,0.019999999999999574
8.89,-0.042603,-0.006977,0.017543,0.003768,idle,0,0.02000000000000135
8.91,0.001047,-0.01762,-0.098476,-0.000509,idle,0,0.019999999999999574
8.93,0.015828,-5.2e-05,-0.044159,-0.000418,idle,0,0.019999999999999574
8.95,-0.034792,0.057798,0.116066,0.011225,idle,0,0.019999999999999574
8.97,0.03964,-0.010331,-0.006458,0.006914,idle,0,0.02000000000000135
8.989,0.005706,-0.034172,-0.027944,-0.001303,idle,0,0.019000000000000128
9.009,0.110788,0.032388,-0.005541,0.005435,idle,0,0.019999999999999574
9.029,-0.046496,0.084641,0.130475,0.021276,idle,0,0.019999999999999574
9.049,0.029435,0.050629,0.057216,0.027147,idle,0,0.019999999999999574
9.069,0.134889,-0.041222,-0.072215,0.013473,idle,0,0.02000000000000135
9.089,0.106689,0.006103,0.027076,0.011999,idle,0,0.019999999999999574
9.109,0.04953,0.028461,-0.047761,0.015291,idle,0,0.019999999999999574
9.129,-0.052056,0.063755,0.134997,0.024984,idle,0,0.019999999999999574
9.149,0.145194,-0.029989,0.066852,0.01399,idle,0,0.019999999999999574
9.168,0.071002,0.049011,0.070817,0.020994,idle,0,0.019000000000000128
9.188,0.097947,0.009078,-0.069649,0.018611,idle,0,0.02000000000000135
9.208,0.077875,-0.02346,0.031012,0.010196,idle,0,0.019999999999999574
9.228,0.059675,0.05598,0.18006,0.019353,idle,0,0.019999999999999574
9.248,0.069177,0.050917,0.042601,0.025666,idle,0,0.019999999999999574
9.268,0.110471,-0.056672,-0.150218,0.009198,idle,0,0.02000000000000135
9.288,0.06701,0.004137,-0.039081,0.008186,idle,0,0.019999999999999574
9.307,0.09595,0.036374,0.150367,0.013824,idle,0,0.019000000000000128
9.327,0.060189,0.052009,-0.015361,0.021461,idle,0,0.019999999999999574
9.347,0.118246,-0.05459,-0.028838,0.006251,idle,0,0.019999999999999574
9.367,0.045989,0.062212,0.108621,0.017443,idle,0,0.02000000000000135
9.387,0.076186,0.093905,0.101183,0.032735,idle,0,0.019999999999999574
9.407,0.074264,-0.029493,-0.064355,0.02029,idle,0,0.019999999999999574
9.427,0.149143,-0.144871,-0.095864,-0.012743,idle,0,0.019999999999999574
9.446,0.114449,-0.003271,0.110405,-0.010848,idle,0,0.019000000000000128
9.466,-0.007754,0.105758,0.124739,0.012473,idle,0,0.019999999999999574
9.486,0.091005,0.021119,-0.008101,0.014202,idle,0,0.02000000000000135
9.506,0.08961,-0.145066,0.01662,-0.017651,idle,0,0.019999999999999574
9.526,0.053198,-0.11602,0.152763,-0.037325,idle,0,0.019999999999999574
9.546,0.017489,0.035138,0.128526,-0.022833,idle,0,0.019999999999999574
9.566,-0.014528,0.100735,0.006684,0.001881,idle,0,0.02000000000000135
9.586,0.021498,-0.014056,-0.029491,-0.001306,idle,0,0.019999999999999574
9.606,0.019396,-0.110785,-0.009517,-0.023202,idle,0,0.019999999999999574
9.625,0.045589,-0.030488,0.154586,-0.024659,idle,0,0.019000000000000128
9.645,-0.031262,0.123428,0.070939,0.004958,idle,0,0.019999999999999574
9.665,0.010833,0.0216,-0.04789,0.008286,idle,0,0.019999999999999574
9.685,0.052569,-0.061396,-0.03353,-0.00565,idle,0,0.02000000000000135
9.705,0.051866,-0.044988,0.078846,-0.013518,idle,0,0.019999999999999574
9.724,0.1157,-0.028517,0.131017,-0.016518,idle,0,0.019000000000000128
9.745,-0.023824,0.056408,0.1187,-0.001932,idle,0,0.02099999999999902
9.764,0.0844,0.011715,-0.046789,0.000797,idle,0,0.019000000000000128
9.785,0.225622,-0.113787,-0.009115,-0.02212,idle,0,0.021000000000000796
9.804,0.302682,-0.138047,0.203374,-0.045305,idle,0,0.019000000000000128
9.824,-0.052011,0.231891,0.197498,0.010134,idle,0,0.019999999999999574
9.844,0.215023,0.024072,-0.046593,0.012922,idle,0,0.019999999999999574
9.864,0.430193,-0.118564,-0.018887,-0.013375,idle,0,0.02000000000000135
9.884,0.100934,-0.052999,-0.03528,-0.0213,idle,0,0.019999999999999574
9.904,0.24372,0.023831,0.101832,-0.012274,idle,0,0.019999999999999574
9.923,0.263904,0.033613,0.043091,-0.003096,idle,0,0.019000000000000128
9.944,0.155331,0.004,-0.090879,-0.001677,idle,0,0.021000000000000796
9.964,0.130726,-0.018438,0.122921,-0.005029,idle,0,0.019999999999999574
9.983,0.165927,0.086288,0.058297,0.013234,idle,0,0.019000000000000128
10.003,0.109386,-0.03756,-0.14065,0.003075,idle,0,0.019999999999999574
10.023,0.130689,-0.014375,-0.061821,-0.000415,idle,0,0.019999999999999574
10.042,-0.109129,0.105653,0.189036,0.020799,idle,0,0.019000000000000128
10.062,-0.001659,-0.002928,0.104962,0.016053,idle,0,0.019999999999999574
10.083,0.082495,-0.098504,-0.34496,-0.006858,idle,0,0.021000000000000796
10.102,0.136463,-0.052525,-0.008311,-0.015991,idle,0,0.019000000000000128
10.122,-0.318766,0.261752,0.36449,0.039557,idle,0,0.019999999999999574
10.142,-0.142092,-0.069825,-0.102088,0.017681,idle,0,0.019999999999999574
10.162,0.128783,-0.052852,-0.205758,0.003574,idle,0,0.02000000000000135
10.182,-0.025369,0.029483,-0.024253,0.008756,idle,0,0.019999999999999574
10.202,-0.315597,0.108034,0.24873,0.028611,idle,0,0.019999999999999574
10.221,-0.155377,-0.041091,-0.144831,0.014671,idle,0,0.019000000000000128
10.241,0.105714,-0.156129,-0.291002,-0.019489,idle,0,0.019999999999999574
10.261,-0.109358,0.009248,-0.062599,-0.013742,idle,0,0.019999999999999574
10.281,-0.328331,0.008016,0.216536,-0.00939,idle,0,0.02000000000000135
10.301,-0.13426,-0.043543,-0.071456,-0.016221,idle,0,0.019999999999999574
10.321,0.108082,-0.064541,-0.236902,-0.025885,idle,0,0.019999999999999574
10.341,-0.145373,0.069965,0.060555,-0.006715,idle,0,0.019999999999999574
10.36,-0.333647,0.050822,0.261247,0.004793,idle,0,0.019000000000000128
10.381,-0.062782,-0.079043,-0.180315,-0.011975,idle,0,0.021000000000000796
10.4,-0.040487,-0.103685,-0.196897,-0.030317,idle,0,0.019000000000000128
10.42,-0.304586,0.041307,-0.026683,-0.015992,idle,0,0.019999999999999574
10.44,-0.327097,-0.15368,-0.179503,-0.04353,idle,0,0.019999999999999574
10.46,-0.180654,-0.11068,-0.288665,-0.05696,idle,0,0.02000000000000135
10.48,-0.093157,0.011464,-0.202861,-0.043275,idle,0,0.019999999999999574
10.5,-0.409367,0.12709,0.192716,-0.009202,idle,0,0.019999999999999574
10.519,-0.279017,0.122299,0.060377,0.017098,idle,0,0.019000000000000128
10.539,-0.140146,-0.11592,-0.19678,-0.009505,idle,0,0.019999999999999574
10.559,-0.239028,-0.097994,-0.155446,-0.027203,idle,0,0.019999999999999574
10.579,-0.243751,0.042226,0.026325,-0.013317,idle,0,0.02000000000000135
10.599,-0.168427,-0.009183,-0.100961,-0.01249,idle,0,0.019999999999999574
10.619,-0.073892,-0.00046,-0.156676,-0.010084,idle,0,0.019999999999999574
10.639,-0.128925,-0.095167,-0.068688,-0.027101,idle,0,0.019999999999999574
10.659,-0.152371,-0.021142,0.079218,-0.025909,idle,0,0.02000000000000135
10.679,-0.097743,0.06664,-0.009776,-0.007399,idle,0,0.019999999999999574
10.698,-0.034602,-0.010785,-0.153964,-0.008076,idle,0,0.019000000000000128
10.718,-0.046601,-0.010473,-0.020562,-0.008556,idle,0,0.019999999999999574
10.738,-0.040911,-0.025641,0.099352,-0.011973,idle,0,0.019999999999999574
10.758,-0.085917,-0.002601,0.014267,-0.010098,idle,0,0.019999999999999574
10.778,-0.019125,0.043744,-0.117827,0.00067,idle,0,0.02000000000000135
10.798,0.068663,-0.025622,-0.037433,-0.004588,idle,0,0.019999999999999574
10.818,-0.09054,-0.040858,0.088123,-0.011842,idle,0,0.019999999999999574
10.837,-0.012463,0.074149,0.088391,0.005356,idle,0,0.019000000000000128
10.857,0.012373,-0.016798,-0.186128,0.000925,idle,0,0.019999999999999574
10.877,-0.035492,0.021294,-0.04121,0.004999,idle,0,0.02000000000000135
10.897,0.038498,0.002488,0.126285,0.004497,idle,0,0.019999999999999574
10.917,-0.068751,0.076448,0.145657,0.018887,idle,0,0.019999999999999574
10.937,-0.000922,0.02371,-0.084482,0.019852,idle,0,0.019999999999999574
10.957,0.059281,0.01824,-0.06266,0.019529,idle,0,0.02000000000000135
10.977,-0.011129,0.011179,0.152333,0.017859,idle,0,0.019999999999999574
10.996,0.016509,0.02981,0.078709,0.020249,idle,0,0.019000000000000128
11.016,0.009757,0.00916,-0.101481,0.018032,idle,0,0.019999999999999574
11.036,0.06668,-0.032857,-0.101365,0.007854,idle,0,0.019999999999999574
11.056,0.007998,0.039045,0.112044,0.014092,idle,0,0.019999999999999574
11.076,0.0369,0.001785,0.076731,0.011631,idle,0,0.02000000000000135
11.096,-0.017107,0.047236,0.029175,0.018752,idle,0,0.019999999999999574
11.116,0.156448,-0.010839,-0.089606,0.012834,idle,0,0.019999999999999574
11.136,0.063042,0.020167,0.09429,0.0143,idle,0,0.019999999999999574
11.155,0.047395,0.067647,0.075271,0.02497,idle,0,0.019000000000000128
11.176,0.047165,0.015723,-0.051478,0.02312,idle,0,0.021000000000000796
11.195,0.142549,-0.091777,-0.0534,0.000141,idle,0,0.019000000000000128
11.215,0.030948,0.094628,0.166116,0.019038,idle,0,0.019999999999999574
11.235,0.096169,0.086513,0.036831,0.032533,idle,0,0.019999999999999574
11.255,0.059491,-0.011208,0.004213,0.023785,idle,0,0.02000000000000135
11.275,0.175964,-0.068874,0.007151,0.005253,idle,0,0.019999999999999574
11.294,0.119668,0.000878,0.092244,0.004378,idle,0,0.019000000000000128
11.314,0.017629,0.070208,0.025092,0.017544,idle,0,0.019999999999999574
11.334,0.111352,-0.000721,-0.088708,0.013891,idle,0,0.019999999999999574
11.354,0.17391,-0.032839,0.143615,0.004545,idle,0,0.019999999999999574
11.374,0.098554,-0.012595,0.189251,0.001117,idle,0,0.02000000000000135
11.394,0.056514,0.043556,-0.150426,0.009605,idle,0,0.019999999999999574
11.414,0.039987,0.004222,0.069997,0.008528,idle,0,0.019999999999999574
11.434,0.072294,-0.022247,0.136444,0.002373,idle,0,0.019999999999999574
11.454,0.023625,-0.060218,0.073351,-0.010145,idle,0,0.02000000000000135
11.474,0.096647,-0.085381,0.011182,-0.025192,idle,0,0.019999999999999574
11.493,0.031124,0.026604,0.134394,-0.014833,idle,0,0.019000000000000128
11.513,0.057074,0.018196,0.055005,-0.008227,idle,0,0.019999999999999574
11.533,0.018973,0.035232,-0.031613,0.000465,idle,0,0.019999999999999574
11.552,0.084902,-0.061358,-0.003781,-0.0119,idle,0,0.019000000000000128
11.572,0.012164,-0.08334,0.14603,-0.026188,idle,0,0.019999999999999574
11.592,0.003772,0.076282,0.064425,-0.005694,idle,0,0.02000000000000135
11.612,0.012353,0.08978,-0.10751,0.013401,idle,0,0.019999999999999574
11.632,0.03877,-0.047116,-0.022033,0.001297,idle,0,0.019999999999999574
11.652,0.006399,-0.045199,0.089055,-0.008002,idle,0,0.019999999999999574
11.672,0.018782,-0.00545,0.10838,-0.007492,idle,0,0.02000000000000135
11.692,0.001754,0.089807,-0.050218,0.011968,idle,0,0.019999999999999574
11.712,0.009299,-0.044721,-0.019362,0.00063,idle,0,0.019999999999999574
11.732,0.046462,-0.006454,0.058591,-0.000787,idle,0,0.019999999999999574
11.751,0.030356,0.004892,0.07328,0.000349,idle,0,0.019000000000000128
11.772,0.037834,0.008923,0.057606,0.002064,idle,0,0.021000000000000796
11.791,0.053846,0.013183,-0.005491,0.004288,idle,0,0.019000000000000128
11.811,0.126421,-0.020921,0.029157,-0.000754,idle,0,0.019999999999999574
11.831,0.171419,-0.001577,0.048701,-0.000919,idle,0,0.019999999999999574
11.851,0.077278,-0.03805,0.069902,-0.008345,idle,0,0.02000000000000135
11.871,0.238733,-0.009868,0.051219,-0.00865,idle,0,0.019999999999999574
11.891,0.298952,0.020433,0.07923,-0.002833,idle,0,0.019999999999999574
11.91,0.22713,-0.05124,0.068514,-0.012515,idle,0,0.019000000000000128
11.93,0.111497,0.022938,-0.035513,-0.005424,idle,0,0.019999999999999574
11.951,0.435843,-0.012552,0.078975,-0.00685,idle,0,0.021000000000000796
11.97,0.420807,0.096976,0.189294,0.013916,idle,0,0.019000000000000128
11.99,0.017459,-0.010952,0.105185,0.008942,idle,0,0.019999999999999574
12.01,0.082895,0.046443,-0.09671,0.016442,idle,0,0.019999999999999574
12.03,0.629326,-0.018848,-0.201337,0.009384,idle,0,0.019999999999999574
12.05,0.1535,0.175598,0.14036,0.042627,idle,0,0.02000000000000135
12.07,-0.264351,-0.02263,0.327368,0.029576,idle,0,0.019999999999999574
12.09,0.211849,-0.029007,-0.251089,0.017859,idle,0,0.019999999999999574
12.109,0.288028,0.216878,-0.033418,0.057663,idle,0,0.019000000000000128
12.129,-0.15552,0.068433,0.275574,0.059817,idle,0,0.019999999999999574
12.149,-0.270282,-0.162152,-0.166904,0.015423,idle,0,0.019999999999999574
12.169,0.174756,0.012767,-0.198679,0.014892,idle,0,0.02000000000000135
12.189,-0.097087,0.00899,-0.045408,0.013711,idle,0,0.019999999999999574
12.209,-0.24583,-0.036705,-0.055968,0.003628,idle,0,0.019999999999999574
12.229,-0.123193,-0.104975,0.106101,-0.018093,idle,0,0.019999999999999574
12.248,-0.110448,0.166346,-0.06502,0.018795,idle,0,0.019000000000000128
12.268,-0.205434,-0.072321,-0.135615,0.000572,idle,0,0.02000000000000135
12.288,-0.464763,-0.278648,-0.039239,-0.055272,idle,0,0.019999999999999574
12.308,-0.094028,-0.10872,-0.116953,-0.065962,idle,0,0.019999999999999574
12.328,-0.249952,0.08725,-0.04445,-0.035319,idle,0,0.019999999999999574
12.348,-0.314561,0.005676,-0.038498,-0.02712,idle,0,0.02000000000000135
12.368,-0.249745,-0.051432,0.008491,-0.031983,idle,0,0.019999999999999574
12.388,-0.148106,-0.003214,0.031907,-0.026229,idle,0,0.019999999999999574
12.408,-0.217553,0.12376,0.015004,0.003769,idle,0,0.019999999999999574
12.427,-0.326019,-0.158273,-0.22927,-0.028639,idle,0,0.019000000000000128
12.447,-0.227382,-0.205036,-0.254905,-0.063919,idle,0,0.019999999999999574
12.467,-0.198238,-0.115166,-0.133684,-0.074168,idle,0,0.02000000000000135
12.487,-0.275378,-0.020368,0.033174,-0.063408,idle,0,0.019999999999999574
12.507,-0.321641,0.046787,-0.158063,-0.041369,idle,0,0.019999999999999574
12.527,-0.2226,-0.037112,-0.025211,-0.040518,idle,0,0.019999999999999574
12.547,-0.081344,-0.036726,-0.054599,-0.039759,idle,0,0.02000000000000135
12.566,-0.25141,-0.020776,0.06086,-0.035963,idle,0,0.019000000000000128
12.587,-0.15225,0.086933,-0.028469,-0.011384,idle,0,0.02099999999999902
12.606,-0.080806,-0.026557,-0.115117,-0.014418,idle,0,0.019000000000000128
12.626,-0.067619,-0.032578,0.060629,-0.01805,idle,0,0.019999999999999574
12.646,-0.106805,-0.000176,0.034433,-0.014476,idle,0,0.02000000000000135
12.666,-0.078431,-0.086066,-0.104226,-0.028794,idle,0,0.019999999999999574
12.686,0.047882,0.057045,-0.314095,-0.011626,idle,0,0.019999999999999574
12.706,-0.090876,0.04247,0.016714,-0.000807,idle,0,0.019999999999999574
12.725,-0.07365,-0.049801,0.108765,-0.010605,idle,0,0.019000000000000128
12.745,-0.088213,-0.064662,-0.027688,-0.021417,idle,0,0.019999999999999574
12.765,0.073418,-0.036337,-0.214022,-0.024401,idle,0,0.02000000000000135
12.785,-0.027966,0.053491,0.001983,-0.008823,idle,0,0.019999999999999574
12.805,-0.11742,0.145283,0.178418,0.021999,idle,0,0.019999999999999574
12.825,-0.005462,-0.098387,-0.056826,-0.002079,idle,0,0.019999999999999574
12.845,0.070029,0.016798,-0.140423,0.001697,idle,0,0.02000000000000135
12.865,-0.053504,0.084184,0.083294,0.018194,idle,0,0.019999999999999574
12.885,-0.057578,0.075064,0.083891,0.029568,idle,0,0.019999999999999574
12.904,-0.080141,-0.069425,-0.095129,0.00977,idle,0,0.019000000000000128
12.924,0.134297,-0.001869,-0.170243,0.007442,idle,0,0.019999999999999574
12.944,-0.063142,0.01093,0.121449,0.008139,idle,0,0.02000000000000135
12.964,-0.063529,0.032992,0.07315,0.01311,idle,0,0.019999999999999574
12.984,0.022779,0.033692,-0.097455,0.017226,idle,0,0.019999999999999574
13.004,0.050674,-0.003914,0.001872,0.012998,idle,0,0.019999999999999574
13.024,-0.034484,0.039481,0.044868,0.018295,idle,0,0.019999999999999574
13.043,0.055035,0.025726,0.045782,0.019781,idle,0,0.019000000000000128
13.063,-0.012745,-0.032569,-0.045944,0.009311,idle,0,0.02000000000000135
13.083,0.122247,0.076224,0.121123,0.022693,idle,0,0.019999999999999574
13.103,0.011492,0.011344,0.012576,0.020423,idle,0,0.019999999999999574
13.123,0.064874,0.050254,0.035749,0.02639,idle,0,0.019999999999999574
13.143,0.101765,-0.084002,-0.029642,0.004311,idle,0,0.02000000000000135
13.162,0.045181,0.06393,0.085687,0.016235,idle,0,0.019000000000000128
13.182,0.083584,0.02825,0.023889,0.018638,idle,0,0.019999999999999574
13.202,0.039346,0.018613,-0.014256,0.018633,idle,0,0.019999999999999574
13.222,0.15552,-0.048068,0.054959,0.005293,idle,0,0.019999999999999574
13.242,0.049976,-0.01787,0.066952,0.00066,idle,0,0.02000000000000135
13.262,0.090923,0.058531,-0.001406,0.012234,idle,0,0.019999999999999574
13.282,0.085232,-0.018416,0.017237,0.006104,idle,0,0.019999999999999574
13.302,0.174473,-0.015417,0.058274,0.0018,idle,0,0.019999999999999574
13.321,0.138282,-0.046468,0.060422,-0.007854,idle,0,0.019000000000000128
13.341,0.147714,-0.071352,-0.007992,-0.020553,idle,0,0.019999999999999574
13.361,0.123021,-0.016902,0.020934,-0.019823,idle,0,0.02000000000000135
13.381,0.061004,0.040044,0.112537,-0.00785,idle,0,0.019999999999999574
13.401,0.10287,-0.02577,0.028274,-0.011434,idle,0,0.019999999999999574
13.421,0.146865,-0.128983,-0.045173,-0.034944,idle,0,0.019999999999999574
13.441,0.048788,-0.114147,0.243168,-0.050784,idle,0,0.02000000000000135
13.46,0.025685,0.066339,0.15474,-0.02736,idle,0,0.019000000000000128
13.48,-0.004921,0.156121,-0.126276,0.009336,idle,0,0.019999999999999574
13.5,0.099718,-0.13993,-0.083684,-0.020517,idle,0,0.019999999999999574
13.52,-0.023093,-0.178254,0.178699,-0.052064,idle,0,0.019999999999999574
13.54,0.040171,0.056754,0.230465,-0.030301,idle,0,0.019999999999999574
13.56,0.016787,0.153389,-0.055945,0.006437,idle,0,0.02000000000000135
13.581,0.034797,-0.037553,-0.104926,-0.002361,idle,0,0.02099999999999902
13.6,0.014842,-0.086921,0.115142,-0.019273,idle,0,0.019000000000000128
13.619,0.012152,-0.022104,0.164905,-0.019839,idle,0,0.019000000000000128
13.639,-0.018716,0.123208,-0.002435,0.00877,idle,0,0.019999999999999574
13.659,-0.029028,0.073813,-0.051942,0.021779,idle,0,0.02000000000000135
13.679,-0.006803,-0.030604,0.057286,0.011302,idle,0,0.019999999999999574
13.699,-0.001481,-0.044259,0.04433,0.00019,idle,0,0.019999999999999574
13.719,0.005166,0.003583,0.033951,0.000869,idle,0,0.019999999999999574
13.739,-0.041311,0.097639,-0.022141,0.020223,idle,0,0.02000000000000135
13.758,0.016363,0.033837,0.007036,0.022945,idle,0,0.01899999999999835
13.779,0.035647,-0.051096,0.061071,0.008137,idle,0,0.021000000000000796
13.798,0.080188,-0.042929,0.078677,-0.002076,idle,0,0.019000000000000128
13.818,-0.007578,0.081334,0.057825,0.014606,idle,0,0.019999999999999574
13.838,0.027891,-0.000163,0.031692,0.011652,idle,0,0.019999999999999574
13.858,0.094849,-0.011571,0.051067,0.007008,idle,0,0.02000000000000135
13.878,0.132161,-0.080835,0.087184,-0.010561,idle,0,0.019999999999999574
13.898,0.085836,0.047735,0.106124,0.001098,idle,0,0.019999999999999574
13.918,0.037336,0.049901,-0.024286,0.010859,idle,0,0.019999999999999574
13.937,0.255702,-0.063712,0.085815,-0.004055,idle,0,0.019000000000000128
13.957,0.3247,-0.163204,0.194925,-0.035885,idle,0,0.02000000000000135
13.977,0.171089,0.033107,0.082177,-0.022087,idle,0,0.019999999999999574
13.997,0.196636,0.063313,-0.022397,-0.005007,idle,0,0.019999999999999574
14.017,0.405946,-0.085095,0.073847,-0.021024,idle,0,0.019999999999999574
14.037,0.21955,-0.061839,0.014178,-0.029187,idle,0,0.02000000000000135
14.057,0.172263,-0.016333,0.128966,-0.026616,idle,0,0.019999999999999574
14.077,0.464925,0.043924,-0.038525,-0.012508,idle,0,0.019999999999999574
14.096,0.08674,0.088125,0.031541,0.007618,idle,0,0.019000000000000128
14.116,0.059411,-0.01676,0.050051,0.002743,idle,0,0.019999999999999574
14.136,0.1588,-0.006676,0.05345,0.000859,idle,0,0.019999999999999574
14.156,0.279364,0.098013,-0.071683,0.02029,idle,0,0.02000000000000135
14.176,-0.213277,-0.000803,-0.011639,0.016071,idle,0,0.019999999999999574
14.196,0.137239,-0.088798,-0.003976,-0.004903,idle,0,0.019999999999999574
14.216,-0.143586,0.144178,0.074591,0.024913,idle,0,0.019999999999999574
14.235,0.016302,0.119331,0.127219,0.043797,idle,0,0.019000000000000128
14.255,-0.079779,0.030313,-0.208422,0.0411,idle,0,0.02000000000000135
14.275,0.123306,-0.198293,-0.300817,-0.006779,idle,0,0.019999999999999574
14.295,-0.177749,0.098088,0.017348,0.014195,idle,0,0.019999999999999574
14.315,-0.16294,0.108755,0.12423,0.033107,idle,0,0.019999999999999574
14.335,-0.176948,-0.06466,-0.122412,0.013554,idle,0,0.02000000000000135
14.355,0.090365,0.012886,-0.131513,0.01342,idle,0,0.019999999999999574
14.375,-0.284205,0.163734,0.109108,0.043483,idle,0,0.019999999999999574
14.394,-0.324869,-0.125879,-0.01722,0.009611,idle,0,0.019000000000000128
14.414,-0.098373,-0.123778,-0.267098,-0.017067,idle,0,0.019999999999999574
14.434,-0.168219,0.033967,-0.024898,-0.00686,idle,0,0.019999999999999574
14.454,-0.306078,0.025977,0.016144,-0.000293,idle,0,0.02000000000000135
14.474,-0.217756,-0.106407,-0.023517,-0.021516,idle,0,0.019999999999999574
14.494,-0.233113,-0.093626,-0.225804,-0.035938,idle,0,0.019999999999999574
14.514,-0.401327,0.01739,0.014038,-0.025272,idle,0,0.019999999999999574
14.534,-0.389113,0.033172,0.025407,-0.013583,idle,0,0.02000000000000135
14.553,-0.156665,-0.085609,-0.173549,-0.027988,idle,0,0.019000000000000128
14.573,-0.320355,-0.057305,-0.203577,-0.033852,idle,0,0.019999999999999574
14.594,-0.264503,-0.035389,-0.125939,-0.034159,idle,0,0.02099999999999902
14.613,-0.20766,0.044768,-0.00354,-0.018374,idle,0,0.019000000000000128
14.633,-0.189379,-0.015653,0.010917,-0.017829,idle,0,0.019999999999999574
14.653,-0.030855,-0.052623,-0.122532,-0.024788,idle,0,0.02000000000000135
14.673,-0.116713,0.062399,-0.155656,-0.007351,idle,0,0.019999999999999574
14.693,-0.089437,-0.124436,-0.03393,-0.030768,idle,0,0.019999999999999574
14.712,-0.091639,0.086994,0.114734,-0.007215,idle,0,0.019000000000000128
14.732,0.056977,0.097256,-0.002897,0.013679,idle,0,0.019999999999999574
14.752,-0.021871,-0.042436,-0.178784,0.002456,idle,0,0.02000000000000135
14.772,-0.035939,0.018939,0.093281,0.005752,idle,0,0.019999999999999574
14.792,-0.070169,0.053939,0.120161,0.01539,idle,0,0.019999999999999574
14.812,-0.000187,-0.026784,-0.105354,0.006955,idle,0,0.019999999999999574
14.832,0.072128,-0.025339,-0.198269,0.000496,idle,0,0.02000000000000135
14.851,-0.106611,0.087863,0.06298,0.01797,idle,0,0.019000000000000128
14.872,0.0305,0.040242,0.162341,0.022424,idle,0,0.02099999999999902
14.891,-0.044596,-0.024494,-0.122189,0.01304,idle,0,0.019000000000000128
14.911,0.043472,-0.066037,-0.169633,-0.002775,idle,0,0.019999999999999574
14.931,-0.102096,0.080956,0.046435,0.013971,idle,0,0.019999999999999574
14.951,0.010734,0.014791,0.158686,0.014135,idle,0,0.02000000000000135
14.971,-0.040726,-0.025103,-0.12915,0.006287,idle,0,0.019999999999999574
14.991,0.022109,-0.011891,-0.039599,0.002652,idle,0,0.019999999999999574
15.011,-0.039119,-0.017008,-0.048513,-0.00128,idle,0,0.019999999999999574
15.03,-0.032166,0.003136,0.034602,-0.000397,idle,0,0.019000000000000128
15.05,0.009627,0.033339,-0.091064,0.00635,idle,0,0.02000000000000135
15.07,-0.022855,-0.032777,0.013457,-0.001475,idle,0,0.019999999999999574
15.09,0.042516,0.065593,0.108013,0.011938,idle,0,0.019999999999999574
15.11,-0.063259,-0.064114,-0.048651,-0.003272,idle,0,0.019999999999999574
15.13,0.031021,-0.0175,-0.06342,-0.006118,idle,0,0.02000000000000135
15.15,0.074499,0.054657,0.05353,0.006037,idle,0,0.019999999999999574
15.169,-0.099896,0.028752,0.035034,0.01058,idle,0,0.019000000000000128
15.19,0.020277,-0.033168,-0.044675,0.001831,idle,0,0.02099999999999902
15.209,0.065447,-0.015221,-0.00502,-0.00158,idle,0,0.019000000000000128
15.229,0.014891,0.083211,0.017407,0.015378,idle,0,0.019999999999999574
15.249,-0.011179,0.009611,-0.043254,0.014225,idle,0,0.02000000000000135
15.269,-0.01361,0.016421,-0.014737,0.014664,idle,0,0.019999999999999574
15.289,0.087668,-0.060259,0.012484,-0.00032,idle,0,0.019999999999999574
15.309,-0.003918,0.062098,0.035369,0.012163,idle,0,0.019999999999999574
15.328,-0.054601,0.074387,0.055583,0.024608,idle,0,0.019000000000000128
15.348,0.044563,-0.081735,-0.12784,0.003339,idle,0,0.02000000000000135
15.368,0.07609,0.003269,-0.020709,0.003325,idle,0,0.019999999999999574
15.388,0.024655,0.079574,0.098717,0.018575,idle,0,0.019999999999999574
15.408,-0.01641,0.024686,-0.017205,0.019797,idle,0,0.019999999999999574
15.428,0.025668,-0.061946,-0.124775,0.003449,idle,0,0.02000000000000135
15.448,0.077228,-0.001823,0.103833,0.002394,idle,0,0.019999999999999574
15.467,0.031142,0.08114,0.044392,0.018144,idle,0,0.019000000000000128
15.487,-0.004623,0.034825,-0.103827,0.02148,idle,0,0.019999999999999574
15.507,0.089179,-0.117465,0.012061,-0.006309,idle,0,0.019999999999999574
15.527,0.067716,0.098463,0.191939,0.014645,idle,0,0.019999999999999574
15.547,0.019619,0.001466,0.000997,0.012009,idle,0,0.02000000000000135
15.567,0.084768,-0.024596,-0.0565,0.004688,idle,0,0.019999999999999574
15.587,0.083012,-0.114562,0.041402,-0.019162,idle,0,0.019999999999999574
15.607,0.045794,0.026281,0.05666,-0.010073,idle,0,0.019999999999999574
15.626,0.109816,-0.012698,-0.03687,-0.010598,idle,0,0.019000000000000128
15.646,0.084543,-0.028154,0.032586,-0.014109,idle,0,0.02000000000000135
15.666,0.121043,-0.047519,0.069232,-0.020791,idle,0,0.019999999999999574
15.686,0.102073,-0.037895,0.078379,-0.024212,idle,0,0.019999999999999574
15.706,0.095543,-0.004085,0.039447,-0.020187,idle,0,0.019999999999999574
15.726,0.080563,-0.025552,0.030803,-0.02126,idle,0,0.02000000000000135
15.746,0.044182,-0.035679,0.079172,-0.024144,idle,0,0.019999999999999574
15.766,0.090319,-0.046205,0.060726,-0.028556,idle,0,0.019999999999999574
15.786,0.036426,-0.01415,0.017475,-0.025675,idle,0,0.019999999999999574
15.805,-0.014644,0.013375,0.083058,-0.017865,idle,0,0.019000000000000128
15.825,0.012536,0.034389,0.053952,-0.007414,idle,0,0.019999999999999574
15.845,0.049224,-0.028385,-0.050215,-0.011608,idle,0,0.02000000000000135
15.865,-0.006256,0.000839,0.009867,-0.009119,idle,0,0.019999999999999574
15.885,-0.021948,0.062625,0.145788,0.00523,idle,0,0.019999999999999574
15.905,0.014879,0.052647,0.036464,0.014713,idle,0,0.019999999999999574
15.925,0.039919,0.025977,-0.072737,0.016966,idle,0,0.02000000000000135
15.944,0.000468,-0.046006,0.082822,0.004372,idle,0,0.019000000000000128
15.964,-0.033668,-0.003377,0.138741,0.002822,idle,0,0.019999999999999574
15.984,0.011678,0.094457,0.056683,0.021149,idle,0,0.019999999999999574
16.004,0.015107,0.048364,-0.006593,0.026592,idle,0,0.02000000000000135
16.025,0.004601,-0.080949,0.044565,0.005084,idle,0,0.020999999999997243
16.044,0.02128,-0.079515,0.087879,-0.011836,idle,0,0.019000000000001904
16.064,-0.002277,0.05415,0.090755,0.001361,idle,0,0.019999999999999574
16.084,-0.001122,0.086844,0.038158,0.018458,idle,0,0.019999999999999574
16.103,0.004954,-0.040305,-0.00188,0.006705,idle,0,0.019000000000001904
16.123,0.020937,-0.078313,0.033083,-0.010298,idle,0,0.019999999999999574
16.143,0.025581,-0.058493,-0.007937,-0.019937,idle,0,0.019999999999999574
16.165,0.052637,0.031225,0.182403,-0.009705,idle,0,0.021999999999998465
16.183,0.003368,0.05476,0.085508,0.003188,idle,0,0.018000000000000682
16.203,0.08749,0.005475,-0.106841,0.003646,idle,0,0.019999999999999574
16.222,0.07388,-0.093425,-0.043499,-0.015768,idle,0,0.019000000000001904
16.242,0.127427,-0.065819,0.101004,-0.025779,idle,0,0.019999999999999574
16.262,0.004565,0.137135,0.137346,0.006804,idle,0,0.019999999999999574
16.283,0.03232,-0.000947,-0.024394,0.005254,idle,0,0.021000000000000796
16.302,0.184656,-0.084738,-0.133731,-0.012744,idle,0,0.01899999999999835
16.322,0.17188,-0.040726,0.05022,-0.018341,idle,0,0.019999999999999574
16.342,0.052235,0.018817,0.115636,-0.010909,idle,0,0.019999999999999574
16.362,0.037485,0.037546,0.001303,-0.001218,idle,0,0.019999999999999574
16.382,0.264908,-0.030486,-0.051117,-0.007072,idle,0,0.020000000000003126
16.401,0.174286,-0.026432,0.105274,-0.010944,idle,0,0.01899999999999835
16.421,0.126384,0.026767,0.049694,-0.003402,idle,0,0.019999999999999574
16.441,0.096074,-0.031345,-0.05615,-0.00899,idle,0,0.019999999999999574
16.461,0.296453,0.046339,0.000614,0.002076,idle,0,0.019999999999999574
16.482,0.147743,0.086086,0.091274,0.018878,idle,0,0.021000000000000796
16.501,-0.078221,-0.056026,0.027947,0.003897,idle,0,0.019000000000001904
16.521,0.256648,-0.086115,-0.162438,-0.014105,idle,0,0.019999999999999574
16.541,0.215904,0.189812,0.025014,0.026678,idle,0,0.019999999999999574
16.56,-0.024719,0.116395,0.202983,0.044622,idle,0,0.01899999999999835
16.582,-0.140649,-0.151873,-0.067377,0.005323,idle,0,0.022000000000002018
16.6,0.34481,-0.123789,-0.250443,-0.0205,idle,0,0.018000000000000682
16.62,0.000909,0.177739,0.08434,0.019148,idle,0,0.019999999999999574
16.64,0.02401,0.128266,0.132176,0.040972,idle,0,0.019999999999999574
16.66,-0.135768,-0.202939,-0.161379,-0.007811,idle,0,0.019999999999999574
16.68,0.252653,0.091157,-0.191445,0.011983,idle,0,0.019999999999999574
16.7,-0.048754,0.09231,0.113791,0.028048,idle,0,0.019999999999999574
16.719,-0.193794,-0.018307,0.235602,0.018777,idle,0,0.019000000000001904
16.739,-0.016453,-0.091149,-0.231057,-0.003208,idle,0,0.019999999999999574
16.759,0.162545,-0.057916,-0.186181,-0.01415,idle,0,0.019999999999999574
16.779,-0.188216,0.16637,0.139922,0.021954,idle,0,0.019999999999999574
16.799,-0.115175,0.025596,0.219279,0.022683,idle,0,0.019999999999999574
16.819,-0.109626,-0.238743,-0.334735,-0.029602,idle,0,0.019999999999999574
16.839,0.082484,-0.074392,-0.269531,-0.03856,idle,0,0.019999999999999574
16.859,-0.183651,0.09088,0.104287,-0.012672,idle,0,0.020000000000003126
16.879,-0.3613,0.033019,0.155426,-0.003534,idle,0,0.019999999999999574
16.898,-0.123729,-0.085526,-0.139034,-0.019932,idle,0,0.01899999999999835
16.918,-0.162021,-0.009282,-0.186156,-0.017802,idle,0,0.019999999999999574
16.938,-0.306898,0.012316,0.082512,-0.011779,idle,0,0.019999999999999574
16.958,-0.401705,0.063679,0.003476,0.003313,idle,0,0.019999999999999574
16.978,-0.252034,-0.164521,-0.207774,-0.030254,idle,0,0.020000000000003126
16.998,-0.257471,-0.00505,-0.101076,-0.025213,idle,0,0.019999999999999574
17.018,-0.297739,0.078442,0.048053,-0.004482,idle,0,0.019999999999999574
17.037,-0.377833,0.031889,0.031705,0.002792,idle,0,0.01899999999999835
17.057,-0.150986,-0.096614,-0.190792,-0.017089,idle,0,0.019999999999999574
17.077,-0.122018,-0.006181,-0.19071,-0.014908,idle,0,0.020000000000003126
17.097,-0.216817,0.034777,0.072051,-0.004971,idle,0,0.019999999999999574
17.117,-0.175522,-0.000589,-0.050716,-0.004094,idle,0,0.019999999999999574
17.137,-0.096493,-0.075981,-0.016208,-0.018472,idle,0,0.019999999999999574
17.157,0.011287,0.100848,-0.101411,0.005392,idle,0,0.019999999999999574
17.176,-0.147361,0.057291,0.078769,0.015772,idle,0,0.01899999999999835
17.197,-0.028799,-0.016228,0.006386,0.009372,idle,0,0.021000000000000796
17.216,-0.034026,-0.111352,-0.159111,-0.014773,idle,0,0.019000000000001904
17.236,0.060876,-0.066135,-0.175054,-0.025045,idle,0,0.019999999999999574
17.256,-0.073437,0.186607,0.105,0.017285,idle,0,0.019999999999999574
17.276,-0.033284,-0.015749,0.104414,0.010678,idle,0,0.019999999999999574
17.296,-0.000246,0.017347,-0.069387,0.012012,idle,0,0.019999999999999574
17.315,0.069124,0.068151,-0.053072,0.02324,idle,0,0.019000000000001904
17.336,-0.059508,0.002977,0.091111,0.019187,idle,0,0.020999999999997243
17.355,-0.046288,-0.03907,0.001377,0.007536,idle,0,0.019000000000001904
17.375,-0.011981,0.045677,0.017087,0.015164,idle,0,0.019999999999999574
17.395,0.077079,-0.006631,-0.013802,0.010805,idle,0,0.019999999999999574
17.415,-0.044977,0.025003,-0.064595,0.013645,idle,0,0.019999999999999574
17.435,0.01287,-0.051494,0.045806,0.000617,idle,0,0.019999999999999574
17.455,-0.011289,0.066375,0.008276,0.013768,idle,0,0.019999999999999574
17.475,0.083332,0.030688,0.020958,0.017152,idle,0,0.020000000000003126
17.495,-0.113935,0.000168,-0.103126,0.013756,idle,0,0.019999999999999574
17.514,0.128997,0.025913,0.018609,0.016187,idle,0,0.01899999999999835
17.534,-0.008557,0.013062,0.069669,0.015562,idle,0,0.019999999999999574
17.554,0.007308,-0.034346,-0.019999,0.00558,idle,0,0.019999999999999574
17.574,-0.070605,0.024007,-0.071299,0.009266,idle,0,0.020000000000003126
17.594,0.102215,0.101848,-0.102623,0.027782,idle,0,0.019999999999999574
17.614,0.015699,0.020692,0.128798,0.026364,idle,0,0.019999999999999574
17.633,-0.022267,0.001022,0.100955,0.021296,idle,0,0.01899999999999835
17.653,-0.012881,-0.121062,-0.119211,-0.007176,idle,0,0.019999999999999574
17.673,0.045606,0.112292,-0.161319,0.016718,idle,0,0.019999999999999574
17.693,0.016141,0.080952,0.206514,0.029565,idle,0,0.020000000000003126
17.713,-0.07762,-0.019949,0.024809,0.019662,idle,0,0.019999999999999574
17.733,-0.019518,-0.053006,-0.126007,0.005128,idle,0,0.019999999999999574
17.753,0.134584,-0.08189,-0.067949,-0.012275,idle,0,0.019999999999999574
17.773,0.004721,0.099484,0.136675,0.010077,idle,0,0.019999999999999574
17.793,-0.174195,0.040817,0.074529,0.016225,idle,0,0.019999999999999574
17.812,0.094585,-0.068019,-0.185827,-0.000624,idle,0,0.019000000000001904
17.832,0.035348,-0.011804,0.042051,-0.00286,idle,0,0.019999999999999574
17.852,-0.026178,0.165861,0.227429,0.030884,idle,0,0.019999999999999574
17.872,-0.052029,0.029867,-0.090868,0.030681,idle,0,0.019999999999999574
17.892,0.149208,-0.021361,-0.179939,0.020272,idle,0,0.019999999999999574
17.911,0.038924,-0.038486,0.121957,0.008521,idle,0,0.019000000000001904
17.931,0.051653,0.120309,0.111482,0.030878,idle,0,0.019999999999999574
17.951,0.03493,-0.040585,-0.066244,0.016586,idle,0,0.019999999999999574
17.971,0.129315,-0.045372,-0.103809,0.004194,idle,0,0.019999999999999574
17.991,0.102073,-0.052164,0.053158,-0.007077,idle,0,0.019999999999999574
18.011,0.064975,0.072583,0.124491,0.008855,idle,0,0.019999999999999574
18.031,0.049982,-0.051152,-0.014726,-0.003147,idle,0,0.019999999999999574
18.051,0.11928,-0.041948,0.002081,-0.010907,idle,0,0.019999999999999574
18.071,0.119455,0.026562,0.144154,-0.003413,idle,0,0.020000000000003126
18.091,0.035059,-0.030568,-0.006381,-0.008844,idle,0,0.019999999999999574
18.11,0.064907,-0.132864,-0.141496,-0.033648,idle,0,0.01899999999999835
18.13,0.0042,0.068106,0.183346,-0.013297,idle,0,0.019999999999999574
18.15,0.010718,0.059433,0.059538,0.001249,idle,0,0.019999999999999574
18.17,0.030594,-0.032203,-0.156157,-0.005442,idle,0,0.020000000000003126
18.19,0.014945,-0.057223,-0.018059,-0.015798,idle,0,0.019999999999999574
18.21,-0.002374,-0.032067,0.12051,-0.019052,idle,0,0.019999999999999574
18.23,-0.000384,0.057466,0.090766,-0.003748,idle,0,0.019999999999999574
18.249,0.0209,-0.016065,-0.104548,-0.006212,idle,0,0.01899999999999835
18.269,0.092155,-0.027094,-0.033046,-0.010388,idle,0,0.019999999999999574
18.289,0.051041,-0.013861,0.155407,-0.011083,idle,0,0.020000000000003126
18.309,0.011116,-0.015711,0.083877,-0.012008,idle,0,0.019999999999999574
18.329,0.067665,0.028031,0.015409,-0.004,idle,0,0.019999999999999574
18.349,0.041681,-0.047114,0.003956,-0.012623,idle,0,0.019999999999999574
18.369,0.101845,-0.047491,0.058254,-0.019597,idle,0,0.019999999999999574
18.389,-0.006169,0.033785,0.024012,-0.00892,idle,0,0.019999999999999574
18.409,0.001361,0.031267,-0.006656,-0.000883,idle,0,0.019999999999999574
18.428,0.032883,-0.011381,0.011519,-0.002982,idle,0,0.019000000000001904
18.448,0.025354,-0.047333,0.002794,-0.011853,idle,0,0.019999999999999574
18.469,-0.015196,0.018924,0.017522,-0.005697,idle,0,0.021000000000000796
18.488,-0.043046,0.02271,0.049815,-1.6e-05,idle,0,0.01899999999999835
18.508,-0.010319,0.036122,-0.014264,0.007212,idle,0,0.019999999999999574
18.528,0.008158,-0.056155,-0.072346,-0.005461,idle,0,0.019999999999999574
18.547,-0.012443,-0.019202,0.038858,-0.00821,idle,0,0.019000000000001904
18.567,-0.018338,0.038427,0.056492,0.001118,idle,0,0.019999999999999574
18.587,0.009583,-0.020557,-0.039658,-0.003217,idle,0,0.019999999999999574
18.607,0.004004,-0.015304,-0.031222,-0.005635,idle,0,0.019999999999999574
18.627,0.014123,-0.015607,0.047259,-0.007629,idle,0,0.019999999999999574
18.647,-0.003876,0.003233,0.066635,-0.005457,idle,0,0.019999999999999574
18.667,0.000643,-0.01737,-0.012277,-0.007839,idle,0,0.020000000000003126
18.687,0.024337,-0.012784,-0.038319,-0.008828,idle,0,0.019999999999999574
18.707,-0.00702,-0.006003,0.02903,-0.008263,idle,0,0.019999999999999574
18.726,-0.006395,0.02844,0.073572,-0.000923,idle,0,0.01899999999999835
18.746,0.006541,0.030481,0.010925,0.005358,idle,0,0.019999999999999574
18.766,0.005441,-0.037559,-0.06597,-0.003225,idle,0,0.019999999999999574
18.786,0.002419,-0.027293,-0.006932,-0.008039,idle,0,0.020000000000003126
18.806,0.002439,0.043691,0.085184,0.002307,idle,0,0.019999999999999574
18.826,0.005172,0.058554,0.00245,0.013557,idle,0,0.019999999999999574
18.846,0.027963,-0.016221,-0.034117,0.007601,idle,0,0.019999999999999574
18.866,0.011469,-0.059383,0.021885,-0.005796,idle,0,0.019999999999999574
18.885,0.011008,0.026059,0.107438,0.000575,idle,0,0.019000000000001904
18.905,-0.006607,0.043797,-0.017735,0.00922,idle,0,0.019999999999999574
18.925,0.022006,-0.014368,-0.012974,0.004502,idle,0,0.019999999999999574
18.945,0.024749,-0.023544,0.049196,-0.001107,idle,0,0.019999999999999574
18.965,0.028015,-0.014998,0.073555,-0.003885,idle,0,0.019999999999999574
18.985,0.032856,-0.010558,0.027588,-0.00522,idle,0,0.019999999999999574
19.004,0.017448,0.008269,0.025956,-0.002522,idle,0,0.019000000000001904
19.025,0.008355,-0.008804,0.021727,-0.003778,idle,0,0.020999999999997243
19.044,0.06329,-0.038732,-0.019471,-0.010769,idle,0,0.019000000000001904
19.064,0.021048,0.001137,0.046692,-0.008388,idle,0,0.019999999999999574
19.084,-0.012343,-0.010056,0.068318,-0.008722,idle,0,0.019999999999999574
19.104,-0.002823,0.027738,0.002732,-0.00143,idle,0,0.019999999999999574
19.124,0.012309,0.037585,0.002831,0.006373,idle,0,0.019999999999999574
19.143,0.024425,-0.00649,-0.004325,0.003801,idle,0,0.019000000000001904
19.163,0.061022,-0.07486,0.039654,-0.011932,idle,0,0.019999999999999574
19.184,0.013784,0.05336,0.056853,0.001127,idle,0,0.021000000000000796
19.203,0.091526,0.049013,0.063579,0.010704,idle,0,0.01899999999999835
19.223,0.129958,-0.030642,0.016761,0.002435,idle,0,0.019999999999999574
19.243,0.124301,-0.025219,0.061837,-0.003096,idle,0,0.019999999999999574
19.263,0.095541,0.086106,0.059931,0.014744,idle,0,0.020000000000003126
19.283,0.150783,-0.030065,-0.102684,0.005782,idle,0,0.019999999999999574
19.302,0.192131,-0.06948,0.066752,-0.00927,idle,0,0.01899999999999835
19.323,0.018446,0.097847,0.188256,0.012153,idle,0,0.021000000000000796
19.342,-0.014836,0.062713,0.005506,0.022265,idle,0,0.01899999999999835
19.362,0.203384,-0.114005,-0.172544,-0.004989,idle,0,0.019999999999999574
19.383,0.167086,-0.013464,0.004408,-0.006684,idle,0,0.021000000000000796
19.402,-0.037883,0.130352,0.213362,0.020723,idle,0,0.019000000000001904
19.422,0.013828,-0.00343,0.020006,0.015893,idle,0,0.019999999999999574
19.442,0.161332,-0.04658,-0.151621,0.003398,idle,0,0.019999999999999574
19.462,0.176968,-0.00379,0.012517,0.001961,idle,0,0.019999999999999574
19.483,0.048258,0.036014,0.065018,0.008771,idle,0,0.021000000000000796
19.502,-0.046214,-0.025907,-0.043145,0.001836,idle,0,0.01899999999999835
19.521,0.24697,-0.044768,-0.098944,-0.007485,idle,0,0.019000000000001904
19.541,0.214393,0.101538,0.073185,0.01432,idle,0,0.019999999999999574
19.561,-0.21457,0.166289,0.211387,0.044713,idle,0,0.019999999999999574
19.582,0.131109,-0.089881,-0.098204,0.017795,idle,0,0.021000000000000796
19.602,0.171101,-0.023628,-0.183564,0.00951,idle,0,0.019999999999999574
19.62,0.079936,0.141404,0.091451,0.035889,idle,0,0.018000000000000682
19.64,-0.122484,-0.009249,-0.047073,0.026861,idle,0,0.019999999999999574
19.66,-0.052488,-0.14468,-0.17465,-0.007447,idle,0,0.019999999999999574
19.68,0.143282,0.023309,-0.143414,-0.001296,idle,0,0.019999999999999574
19.7,-0.020074,0.214279,0.102237,0.041819,idle,0,0.019999999999999574
19.72,-0.217304,0.06208,0.119073,0.045871,idle,0,0.019999999999999574
19.74,-0.059851,-0.232554,-0.253816,-0.009814,idle,0,0.019999999999999574
19.76,0.018113,0.045413,-0.081683,0.001232,idle,0,0.020000000000003126
19.78,-0.062936,0.027991,0.060346,0.006584,idle,0,0.019999999999999574
19.8,-0.229242,0.036688,0.085103,0.012605,idle,0,0.019999999999999574
19.819,-0.099162,-0.029474,-0.031563,0.004189,idle,0,0.01899999999999835
19.839,-0.144369,-0.061023,-0.086834,-0.008854,idle,0,0.019999999999999574
19.859,-0.249951,-0.008227,0.06596,-0.008728,idle,0,0.020000000000003126
19.879,-0.114979,-0.051895,-0.012096,-0.017361,idle,0,0.019999999999999574
19.899,-0.227876,-0.027235,-0.058258,-0.019336,idle,0,0.019999999999999574
19.919,-0.219223,-0.115388,-0.115301,-0.038547,idle,0,0.019999999999999574
19.939,-0.245567,-0.069393,-0.098646,-0.044716,idle,0,0.019999999999999574
19.958,-0.20894,-0.007903,0.05177,-0.037353,idle,0,0.01899999999999835
19.979,-0.312651,0.008492,0.076883,-0.028184,idle,0,0.021000000000000796
19.998,-0.188168,-0.10562,-0.144831,-0.043671,idle,0,0.019000000000001904
20.018,-0.128266,-0.036732,-0.207626,-0.042284,idle,0,0.019999999999999574
20.038,-0.349226,0.035934,0.132926,-0.02664,idle,0,0.019999999999999574
20.058,-0.228951,0.086518,0.114884,-0.004009,idle,0,0.019999999999999574
20.078,-0.099638,-0.121882,-0.206695,-0.027583,idle,0,0.019999999999999574
20.099,-0.128174,-0.062527,-0.168134,-0.034572,idle,0,0.021000000000000796
20.117,-0.075807,0.000547,-0.015491,-0.027548,idle,0,0.018000000000000682
20.137,-0.148902,-0.01161,0.020282,-0.024361,idle,0,0.019999999999999574
20.157,-0.03408,0.004548,-0.079287,-0.018579,idle,0,0.019999999999999574
20.177,-0.021743,-0.028808,-0.004603,-0.020625,idle,0,0.019999999999999574
20.197,0.025407,0.137888,0.066702,0.011078,idle,0,0.019999999999999574
20.217,-0.11525,-0.023191,-0.080261,0.004224,idle,0,0.019999999999999574
20.237,0.018213,-0.027511,-0.107277,-0.002123,idle,0,0.019999999999999574
20.257,0.070862,0.059801,0.030595,0.010262,idle,0,0.020000000000003126
20.277,-0.103815,0.015262,0.002952,0.011262,idle,0,0.019999999999999574
20.297,-0.091382,0.006418,-0.050266,0.010293,idle,0,0.019999999999999574
20.316,0.097407,0.025697,-0.098891,0.013374,idle,0,0.01899999999999835
20.336,0.002917,-0.006945,0.002709,0.00931,idle,0,0.019999999999999574
20.356,-0.143622,0.043997,0.164671,0.016247,idle,0,0.020000000000003126
20.376,-0.099157,0.024132,-0.147949,0.017824,idle,0,0.019999999999999574
20.396,0.098356,-0.104929,-0.117804,-0.006726,idle,0,0.019999999999999574
20.416,-0.019431,0.087496,0.094885,0.012118,idle,0,0.019999999999999574
20.435,-0.105279,0.045003,0.089047,0.018695,idle,0,0.01899999999999835
20.455,-0.10345,-0.061596,-0.177319,0.002637,idle,0,0.019999999999999574
20.475,0.074734,0.030943,-0.01185,0.008298,idle,0,0.020000000000003126
20.495,-0.09433,0.003375,0.091571,0.007314,idle,0,0.019999999999999574
20.515,-0.040522,0.04844,0.009839,0.015539,idle,0,0.019999999999999574
20.535,-0.022827,-0.00051,-0.126871,0.012329,idle,0,0.019999999999999574
20.555,0.001728,-0.000186,-0.00725,0.009826,idle,0,0.019999999999999574
20.575,-0.016646,0.015286,0.071399,0.010918,idle,0,0.019999999999999574
20.594,-0.031642,0.031995,-0.130455,0.015134,idle,0,0.019000000000001904
20.614,-0.039616,-0.036733,-0.064408,0.00476,idle,0,0.019999999999999574
20.634,0.005494,0.014405,0.180625,0.006689,idle,0,0.019999999999999574
20.654,-0.013457,0.046299,0.084101,0.014611,idle,0,0.019999999999999574
20.674,-0.005673,-0.035162,-0.170242,0.004656,idle,0,0.019999999999999574
20.695,0.13854,-0.048115,-0.186323,-0.005898,idle,0,0.021000000000000796
20.714,0.009214,0.01575,0.21121,-0.001568,idle,0,0.01899999999999835
20.733,3.4e-05,0.020231,0.031827,0.002792,idle,0,0.019000000000001904
20.753,0.025338,-0.031818,-0.119585,-0.00413,idle,0,0.019999999999999574
20.773,0.097637,-0.051234,0.046795,-0.013551,idle,0,0.019999999999999574
20.793,0.143916,0.096778,0.14329,0.008515,idle,0,0.019999999999999574
20.813,0.086729,-0.079073,-0.07862,-0.009003,idle,0,0.019999999999999574
20.833,0.141136,-0.076277,-0.026989,-0.022458,idle,0,0.019999999999999574
20.853,0.127099,-0.026711,0.101209,-0.023308,idle,0,0.020000000000003126
20.873,0.184488,0.096624,0.115047,0.000678,idle,0,0.019999999999999574
20.893,0.190438,-0.107909,-0.084902,-0.021039,idle,0,0.019999999999999574
20.912,0.160694,-0.118227,-0.023792,-0.040477,idle,0,0.01899999999999835
20.932,0.158436,0.005113,0.174177,-0.031359,idle,0,0.019999999999999574
20.952,0.070002,0.070323,0.142293,-0.011022,idle,0,0.020000000000003126
20.972,0.161747,-0.086198,-0.076923,-0.026057,idle,0,0.019999999999999574
20.992,0.090292,-0.114136,0.155073,-0.043673,idle,0,0.019999999999999574
21.013,0.06838,0.018651,0.109585,-0.031208,idle,0,0.021000000000000796
21.032,0.04504,-0.013699,-0.055098,-0.027706,idle,0,0.01899999999999835
21.051,0.036924,0.057199,0.04709,-0.010725,idle,0,0.01899999999999835
21.071,0.054112,0.036302,0.075368,-0.00132,idle,0,0.020000000000003126
21.091,-0.014983,-0.054186,0.001022,-0.011893,idle,0,0.019999999999999574
21.111,-0.03615,0.004004,0.03824,-0.008714,idle,0,0.019999999999999574
21.131,-0.009642,0.074343,-0.010822,0.007898,idle,0,0.019999999999999574
21.151,0.027687,0.058275,-0.01,0.017973,idle,0,0.019999999999999574
21.171,-0.02888,-0.037209,-0.027691,0.006937,idle,0,0.019999999999999574
21.191,0.019075,-0.049736,-0.01502,-0.004398,idle,0,0.019999999999999574
21.21,0.010195,0.042075,0.087292,0.004897,idle,0,0.019000000000001904
21.23,0.011717,0.053327,0.028174,0.014583,idle,0,0.019999999999999574
21.25,-0.024831,-0.056914,-0.067062,0.000284,idle,0,0.019999999999999574
21.27,0.015478,-0.060261,5.8e-05,-0.011825,idle,0,0.019999999999999574
21.29,0.014279,0.006618,0.048618,-0.008137,idle,0,0.019999999999999574
21.31,0.001456,0.051635,0.032774,0.003818,idle,0,0.019999999999999574
21.33,-0.047243,0.008239,-0.020259,0.004702,idle,0,0.019999999999999574
21.35,0.016858,-0.045546,-0.042104,-0.005348,idle,0,0.020000000000003126
21.369,0.002522,-0.010875,0.004762,-0.006453,idle,0,0.01899999999999835
21.389,0.018571,0.019708,0.059871,-0.001221,idle,0,0.019999999999999574
21.41,-0.029085,0.028476,0.020067,0.004718,idle,0,0.021000000000000796
21.429,0.005222,-0.006374,-0.01854,0.0025,idle,0,0.01899999999999835
21.449,0.027123,-0.043318,-0.037298,-0.006664,idle,0,0.020000000000003126
21.469,0.045323,-0.02414,0.030466,-0.010159,idle,0,0.019999999999999574
21.489,-0.000393,0.031705,0.052427,-0.001786,idle,0,0.019999999999999574
21.508,-0.001301,0.033308,0.045894,0.005232,idle,0,0.01899999999999835
21.528,0.029394,-0.021668,-0.015848,-0.000148,idle,0,0.019999999999999574
21.548,0.052696,-0.042861,0.032056,-0.00869,idle,0,0.019999999999999574
21.568,0.030389,-0.007251,0.044524,-0.008402,idle,0,0.020000000000003126
21.588,0.032049,-0.023942,0.075919,-0.01151,idle,0,0.019999999999999574
21.608,0.065785,0.022471,0.04351,-0.004714,idle,0,0.019999999999999574
21.628,0.101713,-0.035862,0.017655,-0.010944,idle,0,0.019999999999999574
21.648,0.124487,-0.047356,0.035292,-0.018226,idle,0,0.019999999999999574
21.668,0.162257,-0.073952,0.037445,-0.029371,idle,0,0.019999999999999574
21.687,0.186327,0.017542,0.049837,-0.019989,idle,0,0.019000000000001904
21.707,0.226452,-0.062177,0.083773,-0.028426,idle,0,0.019999999999999574
21.727,0.233659,-0.115888,0.141725,-0.045919,idle,0,0.019999999999999574
21.747,0.21044,0.057747,-0.027539,-0.025186,idle,0,0.019999999999999574
21.767,0.289364,-0.086653,-0.023782,-0.037479,idle,0,0.019999999999999574
21.787,0.299632,-0.017696,0.19309,-0.033522,idle,0,0.019999999999999574
21.807,0.100067,0.109523,0.104659,-0.004913,idle,0,0.019999999999999574
21.826,0.136018,0.00566,-0.065683,-0.002799,idle,0,0.019000000000001904
21.846,0.188423,0.078021,0.064043,0.013365,idle,0,0.019999999999999574
21.866,0.05754,0.142553,0.13222,0.039203,idle,0,0.019999999999999574
21.888,-0.086455,-0.104831,-0.032877,0.010396,idle,0,0.022000000000002018
21.906,0.145369,-0.056036,-0.28022,-0.00289,idle,0,0.01799999999999713
21.926,0.060716,0.070439,-0.004246,0.011775,idle,0,0.019999999999999574
21.946,-0.113657,0.114952,0.175128,0.032411,idle,0,0.020000000000003126
21.965,-0.100235,0.00102,0.002556,0.026133,idle,0,0.01899999999999835
21.986,0.002307,-0.024864,-0.225489,0.015933,idle,0,0.021000000000000796
22.005,0.103461,0.077866,-0.022008,0.02832,idle,0,0.01899999999999835
22.025,-0.183158,0.093617,0.234961,0.041379,idle,0,0.019999999999999574
22.045,-0.122525,-0.027375,-0.028247,0.027628,idle,0,0.020000000000003126
22.065,0.041938,-0.094844,-0.209652,0.003134,idle,0,0.019999999999999574
22.085,-0.011202,0.057704,-0.004797,0.014048,idle,0,0.019999999999999574
22.105,-0.034706,0.03984,0.070331,0.019206,idle,0,0.019999999999999574
22.124,-0.247968,-0.076339,-0.099061,9.7e-05,idle,0,0.01899999999999835
22.145,0.060914,-0.025519,-0.104855,-0.005026,idle,0,0.021000000000000796
22.164,-0.022153,0.052263,-0.04938,0.006432,idle,0,0.019000000000001904
22.184,-0.106546,0.074296,0.069856,0.020004,idle,0,0.019999999999999574
22.204,-0.343715,-0.074989,0.006964,0.001006,idle,0,0.019999999999999574
22.224,0.166486,0.049302,-0.227142,0.010665,idle,0,0.019999999999999574
22.244,-0.226713,0.014507,0.045644,0.011433,idle,0,0.019999999999999574
22.264,-0.165401,0.017507,-0.012715,0.012648,idle,0,0.019999999999999574
22.284,-0.250513,-0.12031,-0.093919,-0.013944,idle,0,0.019999999999999574
22.303,-0.1014,-0.106178,-0.143438,-0.03239,idle,0,0.019000000000001904
22.323,-0.197869,0.06383,-0.031723,-0.013146,idle,0,0.019999999999999574
22.343,-0.352068,0.035857,0.163088,-0.003345,idle,0,0.019999999999999574
22.363,-0.221212,-0.057174,-0.061485,-0.014111,idle,0,0.019999999999999574
22.383,-0.130063,-0.065703,-0.24625,-0.02443,idle,0,0.019999999999999574
22.403,-0.352627,0.02701,0.011661,-0.014142,idle,0,0.019999999999999574
22.422,-0.288885,-0.020932,0.009022,-0.0155,idle,0,0.019000000000001904
22.443,-0.192632,0.036532,-0.027173,-0.005093,idle,0,0.021000000000000796
22.462,-0.134162,-0.100819,-0.153622,-0.024239,idle,0,0.01899999999999835
22.483,-0.218889,-0.049711,-0.089134,-0.029333,idle,0,0.021000000000000796
22.502,-0.220244,0.058435,0.058772,-0.011779,idle,0,0.01899999999999835
22.522,-0.083259,-0.024576,-0.025172,-0.014339,idle,0,0.019999999999999574
22.542,-0.029761,0.002601,-0.01481,-0.010951,idle,0,0.020000000000003126
22.562,-0.044586,-0.021833,0.012899,-0.013127,idle,0,0.019999999999999574
22.582,-0.103897,0.000144,-0.017021,-0.010473,idle,0,0.019999999999999574
22.601,-0.053222,-0.071715,-0.047563,-0.022721,idle,0,0.01899999999999835
22.621,0.060016,0.017779,-0.084179,-0.014621,idle,0,0.019999999999999574
22.641,0.003921,0.019147,0.083252,-0.007868,idle,0,0.019999999999999574
22.661,-0.085833,0.024674,0.020187,-0.001359,idle,0,0.020000000000003126
22.681,0.036716,-0.030596,-0.076429,-0.007207,idle,0,0.019999999999999574
22.701,0.084697,0.005854,-0.046881,-0.004594,idle,0,0.019999999999999574
22.721,-0.05954,-0.01355,0.04699,-0.006385,idle,0,0.019999999999999574
22.741,-0.018242,-0.012424,-0.034953,-0.007593,idle,0,0.019999999999999574
22.76,0.01126,-0.058717,-0.145689,-0.017818,idle,0,0.019000000000001904
22.78,0.045146,0.077613,0.02985,0.001268,idle,0,0.019999999999999574
22.8,-0.08177,0.035591,0.08237,0.008133,idle,0,0.019999999999999574
22.82,-0.0175,-0.022756,-0.06602,0.001955,idle,0,0.019999999999999574
22.84,0.072055,-0.061981,-0.147747,-0.010832,idle,0,0.019999999999999574
22.86,0.008382,0.058179,0.035873,0.00297,idle,0,0.019999999999999574
22.88,-0.096232,0.036233,0.072099,0.009623,idle,0,0.019999999999999574
22.9,-0.021846,0.037837,0.022397,0.015265,idle,0,0.019999999999999574
22.919,0.042085,-0.082422,-0.120583,-0.004272,idle,0,0.019000000000001904
22.939,0.051101,0.005415,-0.028534,-0.002335,idle,0,0.019999999999999574
22.959,-0.140014,0.104042,0.098851,0.018941,idle,0,0.019999999999999574
22.979,0.017603,0.059566,0.02661,0.027066,idle,0,0.019999999999999574
22.999,0.050022,-0.127395,-0.099856,-0.003827,idle,0,0.019999999999999574
23.019,0.009611,0.084982,0.085339,0.013935,idle,0,0.019999999999999574
23.038,-0.079904,0.002691,0.04043,0.011686,idle,0,0.019000000000001904
23.058,-0.019717,0.040418,-0.076498,0.017433,idle,0,0.019999999999999574
23.078,0.072525,-0.116821,-0.089436,-0.009418,idle,0,0.019999999999999574
23.098,-0.01692,0.091211,0.146135,0.010708,idle,0,0.019999999999999574
23.118,-0.060131,0.051723,0.025149,0.018911,idle,0,0.019999999999999574
23.138,0.065659,-0.006354,-0.132701,0.013858,idle,0,0.020000000000003126
23.158,0.022275,-0.059126,-0.000558,-0.000739,idle,0,0.019999999999999574
23.178,0.037133,0.064161,0.196192,0.012241,idle,0,0.019999999999999574
23.198,-0.017686,0.040024,-0.011963,0.017798,idle,0,0.019999999999999574
23.218,0.026644,0.045656,0.013559,0.023369,idle,0,0.019999999999999574
23.237,0.098927,-0.066978,0.03306,0.0053,idle,0,0.01899999999999835
23.257,0.066255,0.105673,0.116593,0.025375,idle,0,0.020000000000003126
23.277,0.025211,0.022279,-0.025442,0.024755,idle,0,0.019999999999999574
23.297,0.097391,0.020074,-0.044929,0.023819,idle,0,0.019999999999999574
23.317,0.137617,-0.039544,0.047795,0.011146,idle,0,0.019999999999999574
23.337,0.077333,-0.014612,0.140262,0.005995,idle,0,0.019999999999999574
23.357,0.127423,0.00413,-0.044399,0.005622,idle,0,0.019999999999999574
23.377,0.110052,-0.004428,-0.009373,0.003612,idle,0,0.019999999999999574
23.396,0.128336,0.020458,0.050694,0.006981,idle,0,0.019000000000001904
23.416,0.121366,-0.065969,0.043107,-0.007609,idle,0,0.019999999999999574
23.436,0.120406,-0.049594,0.056356,-0.016006,idle,0,0.019999999999999574
23.456,0.068335,0.00042,0.014727,-0.012721,idle,0,0.019999999999999574
23.476,0.103124,-0.044003,-0.028018,-0.018977,idle,0,0.019999999999999574
23.496,0.049942,-0.010563,0.117571,-0.017294,idle,0,0.019999999999999574
23.516,0.049606,-0.01719,0.094953,-0.017273,idle,0,0.019999999999999574
23.535,0.035206,-0.056488,-0.02448,-0.025116,idle,0,0.019000000000001904
23.555,0.026909,-0.139345,-0.081162,-0.047962,idle,0,0.019999999999999574
23.575,-0.038342,0.023922,0.09309,-0.033585,idle,0,0.019999999999999574
23.595,-0.034209,0.061191,0.065076,-0.01463,idle,0,0.019999999999999574
23.615,-0.004467,0.018448,0.002696,-0.008014,idle,0,0.019999999999999574
23.635,0.029787,-0.060046,-0.054149,-0.018421,idle,0,0.020000000000003126
23.655,-0.019484,-0.051903,-0.003036,-0.025117,idle,0,0.019999999999999574
23.674,0.004298,0.062772,0.110114,-0.007539,idle,0,0.01899999999999835
23.694,0.020532,0.048003,0.013747,0.003569,idle,0,0.019999999999999574
23.714,0.027838,-0.047672,-0.041969,-0.006679,idle,0,0.019999999999999574
23.734,0.015625,-0.090365,-0.008935,-0.023416,idle,0,0.020000000000003126
23.754,0.01992,0.040849,0.07217,-0.010563,idle,0,0.019999999999999574
23.774,-0.019484,0.084292,0.044571,0.008408,idle,0,0.019999999999999574
23.794,0.007463,0.029812,-0.01791,0.012689,idle,0,0.019999999999999574
23.814,0.008946,-0.037692,-0.019045,0.002613,idle,0,0.019999999999999574
23.834,-0.006879,-0.016888,0.014374,-0.001288,idle,0,0.019999999999999574
23.853,-0.026527,0.057616,0.026301,0.010493,idle,0,0.019000000000001904
23.873,0.00065,0.029981,0.01147,0.014391,idle,0,0.019999999999999574
23.893,0.012491,-0.051707,0.001542,0.001171,idle,0,0.019999999999999574
23.913,0.013766,-0.009896,0.042863,-0.001042,idle,0,0.019999999999999574
23.933,-0.008768,0.04029,0.02166,0.007224,idle,0,0.019999999999999574
23.953,-0.000806,0.043167,0.015893,0.014413,idle,0,0.019999999999999574
23.973,-0.009662,-0.029707,0.054412,0.005589,idle,0,0.019999999999999574
23.993,0.011483,-0.030757,0.023327,-0.00168,idle,0,0.019999999999999574
24.013,-0.020464,0.004278,-0.015608,-0.000489,idle,0,0.020000000000003126
24.032,-0.010645,0.035385,0.025957,0.006686,idle,0,0.01899999999999835
24.052,-0.005767,0.002946,0.057314,0.005938,idle,0,0.019999999999999574
24.072,0.013327,0.016787,0.012675,0.008108,idle,0,0.019999999999999574
24.092,0.000421,0.018478,-0.023175,0.010182,idle,0,0.019999999999999574
24.112,0.013909,-0.001959,-0.009403,0.007754,idle,0,0.019999999999999574
24.132,0.005884,-0.024727,0.037676,0.001257,idle,0,0.020000000000003126
24.151,0.018654,-0.007759,0.024317,-0.000546,idle,0,0.01899999999999835
24.171,0.002768,0.023872,-0.00947,0.004338,idle,0,0.019999999999999574
24.191,0.02047,0.0186,-0.004922,0.00719,idle,0,0.019999999999999574
24.211,0.013411,-0.029525,0.013438,-0.000153,idle,0,0.019999999999999574
24.231,0.011754,0.010226,0.028355,0.001923,idle,0,0.020000000000003126
24.251,-0.001088,0.026344,-0.022242,0.006807,idle,0,0.019999999999999574
24.271,0.020557,0.005072,-0.008642,0.00646,idle,0,0.019999999999999574
24.29,-0.007111,0.032649,0.065164,0.011698,idle,0,0.01899999999999835
24.311,-0.013914,0.019118,0.003995,0.013182,idle,0,0.021000000000000796
24.33,0.016595,0.000949,-0.033683,0.010735,idle,0,0.01899999999999835
24.35,0.01341,-0.033467,0.021653,0.001895,idle,0,0.020000000000003126
24.37,0.035074,0.012419,0.067635,0.004,idle,0,0.019999999999999574
24.39,0.064373,0.005258,0.070968,0.004251,idle,0,0.019999999999999574
24.41,0.042065,0.030293,0.033591,0.00946,idle,0,0.019999999999999574
24.43,0.116093,-0.078041,0.018601,-0.00804,idle,0,0.019999999999999574
24.45,0.159414,-0.055007,0.063658,-0.017434,idle,0,0.019999999999999574
24.469,0.172791,-0.058442,0.094525,-0.025635,idle,0,0.019000000000001904
24.489,0.12677,0.062683,-0.052407,-0.007972,idle,0,0.019999999999999574
24.509,0.217344,-0.123178,-0.029143,-0.031013,idle,0,0.019999999999999574
24.529,0.294286,0.016905,0.080487,-0.021429,idle,0,0.019999999999999574
24.549,0.049584,0.038702,0.08237,-0.009403,idle,0,0.019999999999999574
24.569,0.187555,-0.040136,-0.054662,-0.01555,idle,0,0.019999999999999574
24.589,0.211796,0.008861,0.022357,-0.010668,idle,0,0.019999999999999574
24.608,0.128577,0.089731,0.116819,0.009412,idle,0,0.019000000000001904
24.628,0.059827,-0.006644,0.059189,0.006201,idle,0,0.019999999999999574
24.648,0.099628,-0.09189,-0.172728,-0.013417,idle,0,0.019999999999999574
24.668,0.237542,-0.026094,0.034362,-0.015953,idle,0,0.019999999999999574
24.688,0.038441,0.167693,0.109775,0.020776,idle,0,0.019999999999999574
24.708,-0.022681,0.018865,0.132153,0.020394,idle,0,0.019999999999999574
24.728,0.180091,-0.022858,-0.112885,0.011744,idle,0,0.020000000000003126
24.748,0.148217,0.066661,-0.084222,0.022727,idle,0,0.019999999999999574
24.768,-0.011284,0.064718,0.050025,0.031125,idle,0,0.019999999999999574
24.788,-0.143591,0.001172,0.091496,0.025135,idle,0,0.019999999999999574
24.808,0.068938,-0.041943,-0.226073,0.011719,idle,0,0.019999999999999574
24.827,0.013288,0.082849,-0.106162,0.025945,idle,0,0.019000000000001904
24.847,-0.109253,0.036527,0.033863,0.028061,idle,0,0.019999999999999574
24.867,-0.174897,-0.078034,0.016848,0.006842,idle,0,0.019999999999999574
24.887,-0.007509,-0.004429,-0.062832,0.004588,idle,0,0.019999999999999574
24.907,-0.104031,0.065578,0.001869,0.016786,idle,0,0.019999999999999574
24.926,-0.147599,0.008911,-0.006103,0.015211,idle,0,0.01899999999999835
24.946,-0.015183,-0.168279,-0.108895,-0.021487,idle,0,0.020000000000003126
24.966,-0.066691,-0.07395,-0.128068,-0.031979,idle,0,0.019999999999999574
24.986,-0.148109,0.094679,0.012494,-0.006648,idle,0,0.019999999999999574
25.006,-0.112861,0.016812,0.038816,-0.001956,idle,0,0.019999999999999574
25.026,-0.066828,-0.135839,-0.09334,-0.028732,idle,0,0.019999999999999574
25.046,-0.060131,-0.032618,-0.107413,-0.029509,idle,0,0.019999999999999574
25.066,-0.187301,0.062257,0.047051,-0.011156,idle,0,0.019999999999999574
25.086,-0.140864,-0.004001,-0.055849,-0.009725,idle,0,0.019999999999999574
25.105,-0.15145,-0.031955,-0.097085,-0.014171,idle,0,0.019000000000001904
25.125,-0.216747,-0.010575,-0.027978,-0.013452,idle,0,0.019999999999999574
25.145,-0.22588,-0.004781,-0.078381,-0.011718,idle,0,0.019999999999999574
25.165,-0.261845,-0.065296,-0.085357,-0.022433,idle,0,0.019999999999999574
25.185,-0.233679,-0.007203,-0.098797,-0.019387,idle,0,0.019999999999999574
25.204,-0.219407,-0.0223,-0.097537,-0.01997,idle,0,0.019000000000001904
25.224,-0.218013,-0.017812,-0.035956,-0.019538,idle,0,0.019999999999999574
25.245,-0.209489,0.045353,0.047091,-0.00656,idle,0,0.021000000000000796
25.264,-0.174795,-0.005757,-0.007303,-0.0064,idle,0,0.01899999999999835
25.284,-0.111243,-0.143957,-0.204147,-0.033911,idle,0,0.019999999999999574
25.304,-0.095564,-0.055854,-0.155609,-0.0383,idle,0,0.019999999999999574
25.324,-0.127745,0.005964,0.031235,-0.029447,idle,0,0.020000000000003126
25.344,-0.028808,-0.033269,-0.020998,-0.030211,idle,0,0.019999999999999574
25.364,-0.048178,-0.060434,-0.036626,-0.036256,idle,0,0.019999999999999574
25.385,0.023384,0.030792,0.004418,-0.022846,idle,0,0.021000000000000796
25.404,-0.059166,-0.032989,-0.01584,-0.024875,idle,0,0.01899999999999835
25.423,-0.075544,-0.033735,0.013526,-0.026647,idle,0,0.01899999999999835
25.443,0.027513,-0.035088,-0.132436,-0.028335,idle,0,0.020000000000003126
25.463,0.011191,0.013559,-0.013549,-0.019956,idle,0,0.019999999999999574
25.483,-0.016539,0.003948,-0.057022,-0.015175,idle,0,0.019999999999999574
25.503,-0.037233,-0.086759,-0.023936,-0.029492,idle,0,0.019999999999999574
25.523,0.000368,0.01705,0.027262,-0.020184,idle,0,0.019999999999999574
25.542,-0.046421,0.025121,-0.019061,-0.011123,idle,0,0.019000000000001904
25.562,0.044098,0.043367,-0.157656,-0.000225,idle,0,0.019999999999999574
25.583,-0.013823,-0.084044,0.025711,-0.016989,idle,0,0.020999999999997243
25.602,-0.023535,0.034894,0.096406,-0.006612,idle,0,0.019000000000001904
25.622,-0.065787,-0.034508,-0.045911,-0.012191,idle,0,0.019999999999999574
25.642,-0.020458,-0.049282,-0.191157,-0.019609,idle,0,0.019999999999999574
25.662,0.056403,-0.046354,-0.063191,-0.024958,idle,0,0.019999999999999574
25.682,-0.003677,0.033497,0.091906,-0.013267,idle,0,0.019999999999999574
25.701,-0.134858,0.023989,0.045029,-0.005816,idle,0,0.019000000000001904
25.721,0.043804,-0.00536,-0.186458,-0.005725,idle,0,0.019999999999999574
25.741,0.039776,-0.028668,-0.074112,-0.010313,idle,0,0.019999999999999574
25.761,-0.060867,0.019503,0.189314,-0.00435,idle,0,0.019999999999999574
25.781,-0.102671,0.002178,0.026008,-0.003045,idle,0,0.019999999999999574
25.801,0.075323,-0.010015,-0.25563,-0.004439,idle,0,0.019999999999999574
25.821,0.002934,-0.043266,-0.057737,-0.012204,idle,0,0.020000000000003126
25.841,0.004958,0.174111,0.243056,0.025059,idle,0,0.019999999999999574
25.861,-0.073965,-0.018032,-0.00285,0.016441,idle,0,0.019999999999999574
25.88,-0.008529,-0.06115,-0.124236,0.000922,idle,0,0.01899999999999835
25.9,0.130921,0.037138,-0.03068,0.008166,idle,0,0.019999999999999574
25.92,-0.050555,0.121349,0.295323,0.030802,idle,0,0.020000000000003126
25.94,0.025545,0.001204,-0.002323,0.024883,idle,0,0.019999999999999574
25.96,-0.008143,0.052689,-0.031367,0.030444,idle,0,0.019999999999999574
25.981,0.079402,-0.01075,-0.032184,0.022205,idle,0,0.021000000000000796
25.999,0.052794,0.091305,-0.060564,0.036025,idle,0,0.01799999999999713
26.019,-0.01952,0.01345,0.151792,0.03151,idle,0,0.019999999999999574
26.039,0.061284,0.069931,0.078095,0.039194,idle,0,0.020000000000003126
26.059,0.074966,-0.020123,-0.024175,0.027331,idle,0,0.019999999999999574
26.079,0.063523,0.091689,0.07089,0.040203,idle,0,0.019999999999999574
26.099,0.087186,0.024797,0.032251,0.037121,idle,0,0.019999999999999574
26.119,0.080192,0.04776,0.088692,0.039249,idle,0,0.019999999999999574
26.139,0.123012,-0.011694,0.086607,0.02906,idle,0,0.019999999999999574
26.159,0.043132,0.029425,0.120193,0.029133,idle,0,0.019999999999999574
26.178,0.068342,0.024489,0.014891,0.028205,idle,0,0.019000000000001904
26.198,0.077842,-0.038218,0.074988,0.01492,idle,0,0.019999999999999574
26.218,0.09801,0.009765,0.046764,0.013889,idle,0,0.019999999999999574
26.238,0.078578,-0.070366,-0.018398,-0.002962,idle,0,0.019999999999999574
26.258,0.069926,-0.012783,0.038364,-0.004926,idle,0,0.019999999999999574
26.278,0.051915,-0.002399,0.145122,-0.004421,idle,0,0.019999999999999574
26.298,0.044906,-0.000866,0.044911,-0.00371,idle,0,0.019999999999999574
26.317,0.07756,-0.057215,-0.019467,-0.014411,idle,0,0.019000000000001904
26.338,0.024478,-0.050515,-0.015538,-0.021632,idle,0,0.021000000000000796
26.357,0.039745,-0.075902,0.070582,-0.032486,idle,0,0.01899999999999835
26.377,0.056008,-0.019068,0.062789,-0.029802,idle,0,0.019999999999999574
26.397,-0.00135,-0.00307,-0.001918,-0.024456,idle,0,0.019999999999999574
26.417,0.043629,0.039114,-0.020297,-0.011742,idle,0,0.020000000000003126
26.437,0.0261,-0.07346,-0.00908,-0.024086,idle,0,0.019999999999999574
26.457,0.007404,-0.047036,0.035847,-0.028676,idle,0,0.019999999999999574
26.477,0.027696,0.024433,0.018488,-0.018054,idle,0,0.019999999999999574
26.496,-0.002388,0.034665,-0.039848,-0.00751,idle,0,0.01899999999999835
26.517,0.017516,-0.050269,-0.056903,-0.016062,idle,0,0.021000000000000796
26.536,-0.020823,-0.048079,-0.004137,-0.022465,idle,0,0.019000000000001904
26.556,0.022185,0.064329,0.061539,-0.005107,idle,0,0.019999999999999574
26.576,-0.013583,0.059511,-0.013538,0.007817,idle,0,0.019999999999999574
26.595,0.020975,-0.023502,-0.103782,0.001553,idle,0,0.01899999999999835
26.615,0.00019,-0.06394,-0.051822,-0.011546,idle,0,0.019999999999999574
26.635,0.000789,0.027152,0.074818,-0.003806,idle,0,0.020000000000003126
26.655,-0.027685,0.081849,0.040175,0.013325,idle,0,0.019999999999999574
26.675,0.015873,0.031717,-0.037747,0.017003,idle,0,0.019999999999999574
26.695,-0.002621,-0.054547,-0.0343,0.002693,idle,0,0.019999999999999574
26.715,0.015788,-0.012999,0.041364,-0.000445,idle,0,0.019999999999999574
26.734,-0.007146,0.049061,0.005429,0.009456,idle,0,0.019000000000001904
26.754,-0.002604,0.066805,-0.020012,0.020926,idle,0,0.019999999999999574
26.775,0.000434,-0.003383,0.022008,0.016064,idle,0,0.020999999999997243
26.794,0.016871,-0.049351,0.012342,0.002981,idle,0,0.019000000000001904
26.814,0.003862,-0.00912,0.004059,0.000561,idle,0,0.019999999999999574
26.834,-0.017025,0.045703,0.004977,0.009589,idle,0,0.019999999999999574
26.855,0.00508,0.025454,-0.004739,0.012762,idle,0,0.021000000000000796
26.874,-0.006039,-0.023922,0.012576,0.005425,idle,0,0.01899999999999835
26.894,0.001546,-0.018487,0.001771,0.000643,idle,0,0.019999999999999574
26.913,-0.022126,-0.011605,-0.001148,-0.001807,idle,0,0.019000000000001904
26.934,-0.006523,0.03788,0.008338,0.006131,idle,0,0.021000000000000796
26.953,-0.010788,0.042616,0.010292,0.013428,idle,0,0.01899999999999835
26.973,0.007457,-0.018209,-0.003663,0.007101,idle,0,0.019999999999999574
26.993,-0.012796,-0.048063,0.007,-0.003932,idle,0,0.019999999999999574
27.013,-0.010397,-0.000216,0.003177,-0.003189,idle,0,0.020000000000003126
27.033,0.005362,0.026755,-0.02704,0.0028,idle,0,0.019999999999999574
27.053,0.014518,0.026768,0.01141,0.007593,idle,0,0.019999999999999574
27.072,0.015191,-0.002907,0.028657,0.005493,idle,0,0.01899999999999835
27.092,0.022382,-0.019279,-0.011024,0.000539,idle,0,0.019999999999999574
27.112,0.020642,0.000976,-0.005879,0.000626,idle,0,0.019999999999999574
27.132,0.009017,0.035681,0.038782,0.007637,idle,0,0.020000000000003126
27.152,0.004515,0.003059,0.02282,0.006722,idle,0,0.019999999999999574
27.172,0.021533,-0.019349,-0.011302,0.001507,idle,0,0.019999999999999574
27.192,0.028471,-0.028357,-0.013216,-0.004465,idle,0,0.019999999999999574
27.212,-0.010068,0.031492,0.038678,0.002726,idle,0,0.019999999999999574
27.232,-0.011363,0.039672,0.013829,0.010115,idle,0,0.019999999999999574
27.251,0.01129,0.006397,-0.023024,0.009372,idle,0,0.019000000000001904
27.271,-0.002715,-0.002102,-0.012797,0.007077,idle,0,0.019999999999999574
27.291,-0.016426,-0.001845,0.005124,0.005292,idle,0,0.019999999999999574
27.311,-0.019888,0.004777,0.015326,0.005189,idle,0,0.019999999999999574
27.331,-0.017217,-0.002721,-9.7e-05,0.003607,idle,0,0.019999999999999574
27.351,0.000701,-0.018123,0.013229,-0.000739,idle,0,0.019999999999999574
27.371,-0.006624,-0.009977,0.016839,-0.002586,idle,0,0.019999999999999574
27.391,0.003172,-0.009589,-0.010577,-0.003987,idle,0,0.019999999999999574
27.41,0.010897,0.020717,0.013034,0.000954,idle,0,0.019000000000001904
27.43,0.019614,0.001633,0.010509,0.00109,idle,0,0.019999999999999574
27.45,0.017173,-0.018265,0.019988,-0.002781,idle,0,0.019999999999999574
27.47,0.007995,0.006873,-0.000972,-0.00085,idle,0,0.019999999999999574
27.49,0.022272,0.013523,0.001235,0.002024,idle,0,0.019999999999999574
27.51,0.012463,0.020006,-0.004474,0.005621,idle,0,0.020000000000003126
27.53,0.000521,-0.020311,-0.004825,0.000434,idle,0,0.019999999999999574
27.549,0.001918,-0.013592,0.00389,-0.002371,idle,0,0.01899999999999835
27.569,0.003576,0.017632,0.006304,0.00163,idle,0,0.019999999999999574
27.589,0.002526,0.027638,-0.001308,0.006831,idle,0,0.019999999999999574
27.609,-0.003308,0.004589,0.015205,0.006383,idle,0,0.020000000000003126
27.629,0.01325,-0.000488,0.017192,0.005009,idle,0,0.019999999999999574
27.649,0.007213,-0.003995,-0.008014,0.003208,idle,0,0.019999999999999574
27.669,0.015776,-0.01502,0.014596,-0.000438,idle,0,0.019999999999999574
27.689,0.01162,-0.004923,0.040468,-0.001335,idle,0,0.019999999999999574
27.709,0.031658,-2.7e-05,0.041165,-0.001073,idle,0,0.019999999999999574
27.728,0.020256,-0.022286,-0.015383,-0.005316,idle,0,0.019000000000001904
27.748,0.021467,-0.027776,0.00212,-0.009808,idle,0,0.019999999999999574
27.768,0.055134,-0.040698,0.034721,-0.015986,idle,0,0.019999999999999574
27.788,0.017454,0.017217,0.066982,-0.009345,idle,0,0.019999999999999574
27.808,0.033465,-0.002334,-0.008312,-0.007943,idle,0,0.019999999999999574
27.828,0.031406,-0.026386,0.010747,-0.011631,idle,0,0.019999999999999574
27.848,0.10437,-0.044932,0.032324,-0.018292,idle,0,0.019999999999999574
27.867,0.084278,-0.00933,0.119418,-0.016499,idle,0,0.019000000000001904
27.887,0.070998,0.003153,-0.008884,-0.012569,idle,0,0.019999999999999574
27.907,0.118482,-0.019867,0.00441,-0.014028,idle,0,0.019999999999999574
27.927,0.121281,-0.048306,0.081583,-0.020884,idle,0,0.019999999999999574
27.947,0.129612,-0.02384,0.040834,-0.021475,idle,0,0.019999999999999574
27.967,0.145602,-0.084281,0.004739,-0.034036,idle,0,0.019999999999999574
27.987,0.17834,0.029731,0.097732,-0.021283,idle,0,0.019999999999999574
28.007,0.228289,0.012642,0.105259,-0.014498,idle,0,0.020000000000003126
28.026,0.014549,0.025142,0.058284,-0.00657,idle,0,0.01899999999999835
28.046,0.296231,-0.0633,-0.096364,-0.017916,idle,0,0.019999999999999574
28.066,0.305688,0.029173,0.107378,-0.008498,idle,0,0.019999999999999574
28.086,0.020061,0.097188,0.171285,0.012639,idle,0,0.019999999999999574
28.106,0.021449,0.046174,-0.064635,0.019346,idle,0,0.020000000000003126
28.126,0.296671,-0.111733,-0.21342,-0.00687,idle,0,0.019999999999999574
28.146,0.021701,0.141192,0.09442,0.022743,idle,0,0.019999999999999574
28.166,0.050027,0.1512,0.151126,0.048434,idle,0,0.019999999999999574
28.186,-0.076829,-0.127904,-0.120921,0.013166,idle,0,0.019999999999999574
28.205,0.241639,0.020143,-0.182131,0.014562,idle,0,0.01899999999999835
28.225,-0.03025,0.164365,0.037482,0.044522,idle,0,0.020000000000003126
28.245,-0.204874,0.108016,0.182752,0.057221,idle,0,0.019999999999999574
28.265,0.051096,0.010482,-0.041816,0.047873,idle,0,0.019999999999999574
28.285,0.057623,-0.074977,-0.161735,0.023303,idle,0,0.019999999999999574
28.304,-0.052288,0.132561,-0.085089,0.045155,idle,0,0.01899999999999835
28.325,-0.21458,-0.018221,0.014868,0.03248,idle,0,0.021000000000000796
28.344,-0.003082,-0.14229,-0.185458,-0.002474,idle,0,0.019000000000001904
28.364,-0.049852,-0.088845,-0.192456,-0.019749,idle,0,0.019999999999999574
28.385,-0.081792,0.121523,0.068553,0.008506,idle,0,0.021000000000000796
28.404,-0.278326,0.059455,0.108357,0.018696,idle,0,0.01899999999999835
28.424,-0.10803,-0.092171,-0.055939,-0.003478,idle,0,0.019999999999999574
28.444,-0.12663,-0.061275,-0.044903,-0.015037,idle,0,0.019999999999999574
28.464,-0.204015,0.115424,0.042718,0.011055,idle,0,0.019999999999999574
28.484,-0.309104,0.025111,0.099869,0.013866,idle,0,0.020000000000003126
28.503,-0.20425,-0.083035,-0.115447,-0.005514,idle,0,0.01899999999999835
28.523,-0.147712,-0.114656,-0.179419,-0.027342,idle,0,0.019999999999999574
28.543,-0.242234,-0.039917,-0.044707,-0.029857,idle,0,0.019999999999999574
28.563,-0.363152,-0.125974,-0.095733,-0.049081,idle,0,0.019999999999999574
28.583,-0.19816,-0.09358,-0.1022,-0.05798,idle,0,0.019999999999999574
28.603,-0.144479,-0.033991,-0.11749,-0.053183,idle,0,0.020000000000003126
28.623,-0.214104,-0.020612,-0.020992,-0.046668,idle,0,0.019999999999999574
28.642,-0.228466,-0.040185,-0.040129,-0.045372,idle,0,0.01899999999999835
28.662,-0.106865,-0.059787,-0.067639,-0.048255,idle,0,0.019999999999999574
28.682,-0.11245,-0.019497,-0.050562,-0.042503,idle,0,0.019999999999999574
28.702,-0.083671,-0.027102,-0.080249,-0.039423,idle,0,0.020000000000003126
28.722,-0.120706,-0.047441,-0.012723,-0.041026,idle,0,0.019999999999999574
28.742,-0.03333,0.042308,0.028917,-0.02436,idle,0,0.019999999999999574
28.762,0.040099,0.064806,-0.071281,-0.006526,idle,0,0.019999999999999574
28.788,-0.071994,-0.108805,-0.051355,-0.026982,idle,0,0.0259999999999998
28.804,0.006541,0.033862,0.056301,-0.014813,idle,0,0.015999999999998238
28.821,-0.040235,0.013373,0.03847,-0.009176,idle,0,0.017000000000003013
28.841,-0.031465,0.004117,-0.177279,-0.006518,idle,0,0.019999999999999574
28.861,0.047076,-0.002901,-0.035378,-0.005794,idle,0,0.019999999999999574
28.881,-0.024054,-0.02388,0.086184,-0.009411,idle,0,0.019999999999999574
28.901,-0.074543,-0.02182,-0.009966,-0.011893,idle,0,0.019999999999999574
28.921,0.003243,0.07707,-0.074253,0.0059,idle,0,0.019999999999999574
28.94,0.041171,0.011161,-0.093041,0.006952,idle,0,0.019000000000001904
28.96,-0.169712,-0.06303,0.121704,-0.007044,idle,0,0.019999999999999574
28.98,0.049472,-0.035122,-0.081482,-0.01266,idle,0,0.019999999999999574
29.0,-0.027337,0.017074,-0.036286,-0.006713,idle,0,0.019999999999999574
29.02,-0.052415,0.145808,0.024439,0.023791,idle,0,0.019999999999999574
29.04,-0.061393,-0.056473,-0.009453,0.007738,idle,0,0.019999999999999574
29.06,-0.028847,-0.082374,0.039209,-0.010284,idle,0,0.019999999999999574
29.08,0.045959,0.101581,-0.061027,0.012089,idle,0,0.019999999999999574
29.1,-0.089517,0.036881,-0.096738,0.017047,idle,0,0.020000000000003126
29.119,-0.033063,-0.010872,0.011311,0.011464,idle,0,0.01899999999999835
29.139,-0.023232,-0.02079,0.147374,0.005013,idle,0,0.019999999999999574
29.159,0.002743,0.024251,-0.048173,0.00886,idle,0,0.019999999999999574
29.179,0.010243,-0.026174,-0.11927,0.001854,idle,0,0.019999999999999574
29.199,0.086003,0.010991,-0.083015,0.003681,idle,0,0.020000000000003126
29.219,-0.140915,-0.010338,0.268709,0.000877,idle,0,0.019999999999999574
29.239,0.010603,0.04386,-0.021841,0.009474,idle,0,0.019999999999999574
29.258,0.048193,-0.072397,-0.214776,-0.0069,idle,0,0.01899999999999835
29.278,0.079977,0.038734,0.003613,0.002226,idle,0,0.019999999999999574
29.298,-0.049101,0.008309,0.178699,0.003443,idle,0,0.019999999999999574
29.318,-0.056827,0.089485,0.086244,0.020651,idle,0,0.020000000000003126
29.338,0.08062,-0.107294,-0.13237,-0.004938,idle,0,0.019999999999999574
29.358,0.077019,0.078762,0.019285,0.011802,idle,0,0.019999999999999574
29.378,-0.137241,0.08313,0.097176,0.026068,idle,0,0.019999999999999574
29.398,0.174732,0.025591,-0.067676,0.025972,idle,0,0.019999999999999574
29.417,0.010713,-0.025145,0.077604,0.015749,idle,0,0.019000000000001904
29.437,0.067283,0.069122,0.173529,0.026423,idle,0,0.019999999999999574
29.457,-0.014046,0.036809,-0.029138,0.028501,idle,0,0.019999999999999574
29.477,0.171223,0.022184,-0.050878,0.027237,idle,0,0.019999999999999574
29.497,0.096047,-0.090158,0.069262,0.003758,idle,0,0.019999999999999574
29.517,0.049325,0.092922,0.206583,0.021591,idle,0,0.019999999999999574
29.537,0.061418,0.02529,-0.038162,0.022331,idle,0,0.019999999999999574
29.556,0.147566,-0.0498,-0.041287,0.007905,idle,0,0.019000000000001904
29.576,0.136935,-0.018853,0.091441,0.002553,idle,0,0.019999999999999574
29.596,0.047161,0.031814,0.132465,0.008405,idle,0,0.019999999999999574
29.616,0.075213,0.03085,0.011489,0.012894,idle,0,0.019999999999999574
29.636,0.14238,-0.063009,-0.050084,-0.002286,idle,0,0.019999999999999574
29.656,0.082714,-0.049443,0.052277,-0.011718,idle,0,0.019999999999999574
29.676,0.076708,0.00235,0.114144,-0.008904,idle,0,0.019999999999999574
29.696,0.052279,-0.074796,-0.096438,-0.022082,idle,0,0.020000000000003126
29.715,0.088658,-0.027249,0.000711,-0.023116,idle,0,0.01899999999999835
29.735,0.054703,-0.001449,0.100708,-0.018782,idle,0,0.019999999999999574
29.755,0.085491,-0.082374,0.034044,-0.031501,idle,0,0.019999999999999574
29.775,0.031786,-0.071669,-0.018909,-0.039534,idle,0,0.019999999999999574
29.795,0.063818,-0.041527,0.010091,-0.039933,idle,0,0.020000000000003126
29.815,0.029727,-0.031003,0.070205,-0.038147,idle,0,0.019999999999999574
29.835,0.00653,0.020476,0.026884,-0.026422,idle,0,0.019999999999999574
29.855,0.04468,-0.036231,-0.088189,-0.028384,idle,0,0.019999999999999574
29.875,0.00729,0.002878,-0.011092,-0.022132,idle,0,0.019999999999999574
29.894,-0.019733,0.030911,0.068974,-0.011523,idle,0,0.01899999999999835
29.914,-0.007752,0.081614,-0.007953,0.007104,idle,0,0.020000000000003126
29.934,0.027352,-0.059299,-0.112852,-0.006176,idle,0,0.019999999999999574
29.954,-0.027045,-0.024803,0.064362,-0.009902,idle,0,0.019999999999999574
29.974,-0.027162,0.094702,0.084782,0.011019,idle,0,0.019999999999999574
29.995,-0.010952,0.0153,-0.036267,0.011875,idle,0,0.021000000000000796
30.014,0.008129,-0.05351,-0.039337,-0.001202,idle,0,0.01899999999999835
30.033,0.007422,0.033866,0.035285,0.005812,idle,0,0.019000000000001904
30.053,-0.034527,0.048224,0.041694,0.014294,idle,0,0.019999999999999574
30.073,0.010563,-0.013696,-0.03076,0.008696,idle,0,0.019999999999999574
30.093,-0.00422,-0.023434,0.013198,0.00227,idle,0,0.019999999999999574
30.113,-0.014441,0.010504,0.04347,0.003917,idle,0,0.019999999999999574
30.133,0.001061,0.02392,0.016512,0.007918,idle,0,0.019999999999999574
30.153,0.005729,0.002206,0.001106,0.006775,idle,0,0.019999999999999574
30.173,0.015808,-0.019786,0.000686,0.001463,idle,0,0.019999999999999574
30.193,0.002648,0.015502,0.015498,0.004271,idle,0,0.020000000000003126
30.212,-0.00418,0.042273,0.015376,0.011871,idle,0,0.01899999999999835
30.232,-0.0033,0.011499,-0.000912,0.011797,idle,0,0.019999999999999574
30.252,-0.018718,-0.014622,0.013349,0.006513,idle,0,0.019999999999999574
30.272,0.019669,0.020846,-0.037844,0.00938,idle,0,0.019999999999999574
30.292,-0.026999,0.043525,-0.031133,0.016209,idle,0,0.020000000000003126
30.311,-0.012098,0.029807,0.000728,0.018928,idle,0,0.01899999999999835
30.332,-0.015002,0.017882,0.009586,0.018719,idle,0,0.021000000000000796
30.351,0.003865,-0.016329,-0.006504,0.011709,idle,0,0.01899999999999835
30.371,-0.007019,0.016671,-0.010264,0.012702,idle,0,0.019999999999999574
30.391,0.010297,0.034248,0.037842,0.017011,idle,0,0.019999999999999574
30.411,0.009306,-0.004546,0.032395,0.0127,idle,0,0.020000000000003126
30.431,0.016736,-0.037815,-0.003266,0.002597,idle,0,0.019999999999999574
30.451,0.012692,-0.017606,3.2e-05,-0.001444,idle,0,0.019999999999999574
30.471,0.003148,0.048162,0.055102,0.008477,idle,0,0.019999999999999574
30.491,8.3e-05,0.038047,0.010533,0.014391,idle,0,0.019999999999999574
30.51,-0.001261,-0.013738,-0.035193,0.008765,idle,0,0.019000000000001904
30.53,-0.005045,-0.03224,-0.012669,0.000564,idle,0,0.019999999999999574
30.55,-0.02639,0.038355,0.045986,0.008122,idle,0,0.019999999999999574
30.57,-0.019937,0.036893,0.006113,0.013877,idle,0,0.019999999999999574
30.59,-0.032868,0.025069,-0.02069,0.016115,idle,0,0.019999999999999574
30.61,-0.00142,-0.017949,-0.003609,0.009302,idle,0,0.019999999999999574
30.629,-0.002207,0.017045,-0.01275,0.010851,idle,0,0.019000000000001904
30.649,0.001298,0.038581,-0.005551,0.016397,idle,0,0.019999999999999574
30.669,-0.015147,0.059219,0.025712,0.024961,idle,0,0.019999999999999574
30.689,0.01731,-0.014809,0.007989,0.017007,idle,0,0.019999999999999574
30.709,0.027551,-0.013033,-0.015836,0.010999,idle,0,0.019999999999999574
30.729,0.027429,0.011085,0.009925,0.011016,idle,0,0.019999999999999574
30.749,0.005196,0.041851,0.007836,0.017183,idle,0,0.019999999999999574
30.769,0.024491,0.005255,0.000307,0.014798,idle,0,0.019999999999999574
30.789,0.006104,-0.028509,-0.02188,0.006136,idle,0,0.020000000000003126
30.809,0.000452,-0.005495,0.009956,0.00381,idle,0,0.019999999999999574
30.828,-0.017555,0.015507,0.019425,0.00615,idle,0,0.01899999999999835
30.848,-0.015714,0.021844,0.021156,0.009288,idle,0,0.019999999999999574
30.868,-0.019097,-0.006637,-0.036738,0.006103,idle,0,0.019999999999999574
30.888,-0.017243,-0.018405,-0.063211,0.001202,idle,0,0.020000000000003126
30.908,-0.014047,0.023565,-0.003334,0.005674,idle,0,0.019999999999999574
30.928,-0.038121,0.020213,0.017319,0.008582,idle,0,0.019999999999999574
30.948,0.004616,0.008705,-0.014326,0.008607,idle,0,0.019999999999999574
30.967,0.016732,-0.026817,-0.039346,0.001522,idle,0,0.01899999999999835
30.987,-0.003114,0.005952,0.055721,0.002408,idle,0,0.019999999999999574
31.007,0.00967,0.016048,0.045789,0.005136,idle,0,0.020000000000003126
31.027,0.027465,-0.015925,-0.027915,0.000924,idle,0,0.019999999999999574
31.047,0.048364,-0.011746,-0.027852,-0.00161,idle,0,0.019999999999999574
31.067,0.023378,-0.001001,0.033304,-0.001488,idle,0,0.019999999999999574
31.087,0.017844,-0.008513,0.006174,-0.002893,idle,0,0.019999999999999574
31.107,0.01866,-0.00869,-0.019884,-0.004053,idle,0,0.019999999999999574
31.126,0.011839,-0.027167,-0.00027,-0.008676,idle,0,0.019000000000001904
31.146,-0.002917,-0.006197,0.018055,-0.00818,idle,0,0.019999999999999574
31.166,-0.016065,0.042736,0.007984,0.002003,idle,0,0.019999999999999574
31.187,-0.007723,-0.01404,-0.063682,-0.001205,idle,0,0.021000000000000796
31.206,-0.009928,-0.052755,-0.015422,-0.011515,idle,0,0.01899999999999835
31.226,-0.021668,0.03149,0.054594,-0.002914,idle,0,0.019999999999999574
31.246,-0.015012,0.029257,-0.005692,0.00352,idle,0,0.019999999999999574
31.265,0.006655,-0.029763,-0.054965,-0.003137,idle,0,0.019000000000001904
31.285,0.01281,-0.026588,0.025437,-0.007827,idle,0,0.019999999999999574
31.305,0.001913,0.015387,0.055364,-0.003184,idle,0,0.019999999999999574
31.325,0.013821,0.024868,-0.012425,0.002426,idle,0,0.019999999999999574
31.345,0.018565,-0.023072,-0.049842,-0.002673,idle,0,0.019999999999999574
31.365,0.018404,-0.025344,0.024632,-0.007207,idle,0,0.019999999999999574
31.385,0.012157,-0.001392,0.033995,-0.006044,idle,0,0.020000000000003126
31.405,0.00528,0.034149,-0.001345,0.001994,idle,0,0.019999999999999574
31.424,-0.009697,0.008239,-0.044977,0.003243,idle,0,0.01899999999999835
31.444,-0.002379,-0.021471,0.007062,-0.0017,idle,0,0.019999999999999574
31.464,0.00784,0.014197,0.01186,0.00148,idle,0,0.019999999999999574
31.484,-0.006427,0.006812,-0.022465,0.002546,idle,0,0.020000000000003126
31.504,-0.003948,0.016682,-0.00207,0.005373,idle,0,0.019999999999999574
31.524,0.019864,-0.020403,-0.023055,0.000218,idle,0,0.019999999999999574
31.544,0.002256,-0.019035,0.014934,-0.003633,idle,0,0.019999999999999574
31.564,0.004706,-0.00434,0.002338,-0.003774,idle,0,0.019999999999999574
31.583,0.013516,0.006528,-0.011311,-0.001714,idle,0,0.01899999999999835
31.603,0.004418,-0.009726,0.001974,-0.003316,idle,0,0.020000000000003126
31.623,0.00289,-0.01219,0.004811,-0.005091,idle,0,0.019999999999999574
31.643,0.004987,-0.007665,-0.022219,-0.005606,idle,0,0.019999999999999574
31.663,-0.000792,0.01348,-0.00893,-0.001788,idle,0,0.019999999999999574
31.683,0.000858,-0.013852,-0.008893,-0.004201,idle,0,0.019999999999999574
31.702,0.009346,0.004006,0.000372,-0.00256,idle,0,0.019000000000001904
31.722,0.000996,0.020657,-0.014888,0.002084,idle,0,0.019999999999999574
31.742,0.007965,0.003503,-0.024001,0.002367,idle,0,0.019999999999999574
31.762,0.012909,-0.01037,0.001049,-0.00018,idle,0,0.019999999999999574
31.783,0.002959,0.004516,0.023566,0.000759,idle,0,0.021000000000000796
31.802,0.002324,0.013344,-0.00203,0.003276,idle,0,0.01899999999999835
31.822,0.0152,0.002884,-0.02603,0.003198,idle,0,0.019999999999999574
31.842,-0.000372,-0.010393,0.003295,0.00048,idle,0,0.019999999999999574
31.862,0.006383,-0.003363,0.014163,-0.000289,idle,0,0.019999999999999574
31.883,0.001844,0.017443,0.003094,0.003258,idle,0,0.021000000000000796
31.901,-0.002864,-0.003219,-0.026504,0.001962,idle,0,0.018000000000000682
31.921,0.002745,-0.015785,-0.007461,-0.001587,idle,0,0.019999999999999574
31.941,-0.000334,0.009017,0.028461,0.000534,idle,0,0.019999999999999574
31.961,-0.013168,0.031193,0.026267,0.006665,idle,0,0.019999999999999574
31.981,-0.004797,-0.000779,-0.020206,0.005177,idle,0,0.020000000000003126
32.001,-0.000209,-0.016573,0.004206,0.000827,idle,0,0.01999999999999602
32.021,0.010128,-0.00122,0.015627,0.000417,idle,0,0.020000000000003126
32.04,-0.00712,0.01416,0.015829,0.003166,idle,0,0.01899999999999835
32.06,0.007004,0.014752,0.007661,0.005483,idle,0,0.020000000000003126
32.08,0.009779,-0.009878,0.002397,0.002411,idle,0,0.01999999999999602
32.1,0.010787,-0.01634,0.015909,-0.001339,idle,0,0.020000000000003126
32.12,0.014778,0.01652,0.029077,0.002233,idle,0,0.01999999999999602
32.14,0.001225,0.007753,0.006397,0.003337,idle,0,0.020000000000003126
32.16,-0.001038,0.00756,-8e-06,0.004181,idle,0,0.01999999999999602
32.18,0.012638,0.007303,0.020245,0.004806,idle,0,0.020000000000003126
32.2,0.014295,0.006332,0.000477,0.005111,idle,0,0.020000000000003126
32.219,0.014335,0.015018,0.002621,0.007092,idle,0,0.01899999999999835
32.239,0.00194,-0.004475,0.002571,0.004779,idle,0,0.01999999999999602
32.259,0.022457,0.003295,0.029968,0.004482,idle,0,0.020000000000003126
32.279,0.007703,0.015988,0.03159,0.006783,idle,0,0.020000000000003126
32.299,0.013764,-0.007446,-0.00131,0.003937,idle,0,0.01999999999999602
32.318,-0.002379,-0.020896,-0.023878,-0.001029,idle,0,0.01899999999999835
32.339,0.027171,0.013912,0.058475,0.001959,idle,0,0.021000000000000796
32.358,-0.00301,0.012449,0.0421,0.004057,idle,0,0.01899999999999835
32.379,0.024535,-0.02524,-0.045917,-0.001802,idle,0,0.021000000000000796
32.398,-0.000691,-0.021017,-0.014809,-0.005645,idle,0,0.019000000000005457
32.418,0.013018,0.015324,0.070981,-0.001451,idle,0,0.01999999999999602
32.438,0.016073,0.013816,0.064029,0.001602,idle,0,0.020000000000003126
32.458,0.034883,-0.002258,0.011833,0.00083,idle,0,0.01999999999999602
32.478,0.022365,-0.001007,-0.016274,0.000463,idle,0,0.020000000000003126
32.498,0.047974,0.013179,0.062547,0.003006,idle,0,0.01999999999999602
32.517,0.063763,0.027277,0.031907,0.00786,idle,0,0.019000000000005457
32.537,0.036598,0.022935,0.051652,0.010875,idle,0,0.01999999999999602
32.557,0.062809,-0.02038,-0.022034,0.004624,idle,0,0.020000000000003126
32.577,0.109825,0.0069,0.004427,0.005079,idle,0,0.01999999999999602
32.597,0.089938,0.018242,0.036875,0.007712,idle,0,0.020000000000003126
32.617,0.105175,-0.048155,0.096343,-0.003461,idle,0,0.01999999999999602
32.637,0.117229,0.028481,0.077035,0.002927,idle,0,0.020000000000003126
32.656,0.100998,0.04166,-0.026898,0.010674,idle,0,0.01899999999999835
32.676,0.166629,-0.025215,-0.031348,0.003496,idle,0,0.020000000000003126
32.696,0.210242,-0.058696,0.134122,-0.008943,idle,0,0.01999999999999602
32.716,-0.018176,0.137575,0.232342,0.020361,idle,0,0.020000000000003126
32.736,0.125189,0.006398,-0.084998,0.017568,idle,0,0.01999999999999602
32.756,0.307872,-0.097208,-0.149435,-0.005387,idle,0,0.020000000000003126
32.776,0.17611,0.081207,0.054067,0.011932,idle,0,0.020000000000003126
32.796,-0.042715,-0.004565,0.127041,0.008632,idle,0,0.01999999999999602
32.815,0.100515,-0.021829,-0.078376,0.00254,idle,0,0.01899999999999835
32.835,0.22058,-0.028715,-0.173666,-0.003711,idle,0,0.020000000000003126
32.855,0.129313,0.093178,0.083498,0.015667,idle,0,0.01999999999999602
32.875,-0.094768,0.083413,0.199471,0.029216,idle,0,0.020000000000003126
32.896,-0.082375,-0.00472,0.013751,0.022429,idle,0,0.021000000000000796
32.915,0.308214,-0.092469,-0.246522,-0.000551,idle,0,0.01899999999999835
32.935,-0.079854,0.080735,0.004569,0.015706,idle,0,0.020000000000003126
32.955,-0.110413,-0.04256,0.076389,0.004053,idle,0,0.01999999999999602
32.974,-0.050206,-0.06944,-0.12006,-0.010646,idle,0,0.01899999999999835
32.994,0.061486,-0.10268,-0.211303,-0.029052,idle,0,0.020000000000003126
33.014,-0.083095,0.078188,-0.016253,-0.007604,idle,0,0.020000000000003126
33.034,-0.049323,0.005989,0.024939,-0.004886,idle,0,0.01999999999999602
33.054,-0.195884,-0.002128,0.06465,-0.004334,idle,0,0.020000000000003126
33.074,0.004407,0.063983,-0.059814,0.009329,idle,0,0.01999999999999602
33.094,-0.069425,0.032363,-0.044106,0.013936,idle,0,0.020000000000003126
33.114,-0.202679,-0.044332,-0.002803,0.002283,idle,0,0.01999999999999602
33.134,-0.133822,0.002462,-0.0438,0.002318,idle,0,0.020000000000003126
33.153,-0.043014,0.028323,-0.095982,0.007519,idle,0,0.01899999999999835
33.173,-0.187966,-0.014999,-0.027746,0.003016,idle,0,0.020000000000003126
