timestamp,accX,accY,accZ,filteredAccY,phase,repCount,t_diff
0.005,-0.010743,0.036313,-0.032157,0.007263,idle,0,-178.985
0.025,-0.007909,-0.039072,-0.006543,-0.002004,idle,0,0.02
0.045,-0.028552,-0.046338,0.000516,-0.010871,idle,0,0.019999999999999997
0.065,-0.007141,-0.023308,0.017085,-0.013358,idle,0,0.020000000000000004
0.084,-0.019516,-0.049569,0.016891,-0.020601,idle,0,0.019000000000000003
0.104,-0.013716,-0.033981,0.002519,-0.023277,idle,0,0.01999999999999999
0.124,-0.00164,0.003334,-0.012178,-0.017954,idle,0,0.020000000000000004
0.144,0.001735,0.006811,0.002145,-0.013001,idle,0,0.01999999999999999
0.164,-0.00545,-0.007323,0.012751,-0.011866,idle,0,0.020000000000000018
0.184,-0.01391,-0.008408,0.005325,-0.011174,idle,0,0.01999999999999999
0.204,-0.007855,0.014879,-0.000204,-0.005964,idle,0,0.01999999999999999
0.224,-0.004282,0.032517,0.013219,0.001733,idle,0,0.020000000000000018
0.245,-0.008633,-0.003132,0.031954,0.00076,idle,0,0.02099999999999999
0.264,-0.01588,-0.020278,0.025826,-0.003448,idle,0,0.019000000000000017
0.285,-0.002023,-0.010024,0.013389,-0.004763,idle,0,0.020999999999999963
0.303,0.002567,0.008556,0.003053,-0.002099,idle,0,0.018000000000000016
0.323,0.009013,0.006411,0.005485,-0.000397,idle,0,0.020000000000000018
0.343,0.013,0.006979,-0.003692,0.001078,idle,0,0.020000000000000018
0.363,0.010632,0.001018,-0.010185,0.001066,idle,0,0.019999999999999962
0.383,0.001009,0.009937,-0.00074,0.00284,idle,0,0.020000000000000018
0.403,0.0029,0.027968,-0.003172,0.007866,idle,0,0.020000000000000018
0.429,-0.007602,0.031752,-0.001249,0.012643,idle,0,0.025999999999999968
0.442,0.0047,0.01429,-0.013177,0.012972,idle,0,0.013000000000000012
0.462,0.02714,-0.018287,-0.013239,0.00672,idle,0,0.020000000000000018
0.482,0.033379,-0.032605,-0.007439,-0.001145,idle,0,0.019999999999999962
0.502,0.034331,-0.017582,-0.004748,-0.004432,idle,0,0.020000000000000018
0.522,0.032759,-0.01495,0.02355,-0.006536,idle,0,0.020000000000000018
0.542,0.023424,-0.021213,0.056771,-0.009471,idle,0,0.020000000000000018
0.562,0.014361,-0.023591,0.068416,-0.012295,idle,0,0.020000000000000018
0.581,0.005815,-0.016656,0.065168,-0.013167,idle,0,0.018999999999999906
0.601,-0.004525,-0.0034,0.06003,-0.011214,idle,0,0.020000000000000018
0.621,-0.007546,-0.016017,0.043861,-0.012175,idle,0,0.020000000000000018
0.641,0.016198,-0.042365,0.026973,-0.018213,idle,0,0.020000000000000018
0.661,0.001404,-0.047295,0.010462,-0.024029,idle,0,0.020000000000000018
0.681,0.008968,-0.047497,-0.013745,-0.028723,idle,0,0.020000000000000018
0.701,0.011028,-0.029863,-0.025654,-0.028951,idle,0,0.019999999999999907
0.721,0.012769,-0.012584,-0.018702,-0.025677,idle,0,0.020000000000000018
0.74,0.009281,-0.004073,-0.002692,-0.021357,idle,0,0.019000000000000017
0.76,-0.006427,-0.031794,0.021141,-0.023444,idle,0,0.020000000000000018
0.78,-0.021919,0.004111,0.024879,-0.017933,idle,0,0.020000000000000018
0.8,-0.024917,0.03217,0.025718,-0.007912,idle,0,0.020000000000000018
0.82,-0.023859,0.015322,0.036482,-0.003266,idle,0,0.019999999999999907
0.84,-0.010131,-0.01028,0.034041,-0.004668,idle,0,0.020000000000000018
0.86,-0.012355,-0.0253,0.010498,-0.008795,idle,0,0.020000000000000018
0.88,-0.011171,0.013867,-0.004345,-0.004262,idle,0,0.020000000000000018
0.899,-0.010594,0.046799,-0.010062,0.00595,idle,0,0.019000000000000017
0.92,-0.012876,0.008969,-0.009157,0.006554,idle,0,0.02100000000000002
0.939,-0.007148,-0.034917,-0.012083,-0.00174,idle,0,0.018999999999999906
0.959,-0.003148,-0.030791,-0.028724,-0.007551,idle,0,0.020000000000000018
0.979,0.000787,0.014971,-0.034725,-0.003046,idle,0,0.020000000000000018
0.999,0.015799,0.028096,-0.015987,0.003182,idle,0,0.020000000000000018
1.019,0.010402,0.00083,-0.009951,0.002712,idle,0,0.019999999999999907
1.039,0.027666,-0.020455,-0.009848,-0.001922,idle,0,0.020000000000000018
1.059,0.026203,-0.025034,0.000774,-0.006544,idle,0,0.020000000000000018
1.078,0.016086,0.013045,0.006079,-0.002626,idle,0,0.019000000000000128
1.099,0.021507,0.054989,0.008683,0.008897,idle,0,0.020999999999999908
1.118,0.023119,0.009572,0.004316,0.009032,idle,0,0.019000000000000128
1.138,0.004512,-0.032868,0.010596,0.000652,idle,0,0.019999999999999796
1.158,-0.008005,-0.036819,0.021554,-0.006842,idle,0,0.020000000000000018
1.178,-0.009105,-0.022625,0.030022,-0.009999,idle,0,0.020000000000000018
1.198,0.001597,-0.002889,0.022349,-0.008577,idle,0,0.020000000000000018
1.218,0.002409,-0.000853,0.021208,-0.007032,idle,0,0.020000000000000018
1.237,-0.001348,-0.004163,0.027805,-0.006458,idle,0,0.019000000000000128
1.257,0.021785,-0.017325,0.019568,-0.008631,idle,0,0.019999999999999796
1.277,0.041348,-0.012706,0.013458,-0.009446,idle,0,0.020000000000000018
1.297,0.057989,0.001024,0.007312,-0.007352,idle,0,0.020000000000000018
1.317,0.06958,0.009762,-0.005669,-0.003929,idle,0,0.020000000000000018
1.337,0.056155,0.000657,-0.024166,-0.003012,idle,0,0.020000000000000018
1.357,0.020629,-0.015191,-0.027878,-0.005448,idle,0,0.020000000000000018
1.376,0.006491,-0.020827,0.014635,-0.008524,idle,0,0.018999999999999906
1.396,0.010591,0.022711,0.051819,-0.002277,idle,0,0.020000000000000018
1.416,0.036159,0.045403,0.043716,0.007259,idle,0,0.020000000000000018
1.436,0.035958,0.008323,-0.016465,0.007472,idle,0,0.020000000000000018
1.456,0.000997,-0.036288,-0.014599,-0.00128,idle,0,0.020000000000000018
1.476,-0.00037,-0.024297,0.032418,-0.005883,idle,0,0.020000000000000018
1.496,0.00264,0.049853,0.040617,0.005264,idle,0,0.020000000000000018
1.515,0.016913,0.081407,0.015422,0.020492,idle,0,0.018999999999999906
1.535,0.021313,0.032114,0.001394,0.022817,idle,0,0.020000000000000018
1.555,0.028491,2.3e-05,0.023256,0.018258,idle,0,0.020000000000000018
1.575,0.027253,0.001324,0.061743,0.014871,idle,0,0.020000000000000018
1.595,0.026061,0.053543,0.049509,0.022606,idle,0,0.020000000000000018
1.615,0.012959,0.073902,0.008428,0.032865,idle,0,0.020000000000000018
1.635,0.019191,0.040775,-0.016746,0.034447,idle,0,0.020000000000000018
1.654,0.032111,0.020407,-0.012014,0.031639,idle,0,0.018999999999999906
1.674,0.042177,0.01255,-0.001398,0.027821,idle,0,0.020000000000000018
1.694,0.047071,0.018827,0.004258,0.026022,idle,0,0.020000000000000018
1.714,0.066502,0.026101,-0.026181,0.026038,idle,0,0.020000000000000018
1.734,0.072306,0.032509,-0.04645,0.027332,idle,0,0.020000000000000018
1.754,0.056437,0.012695,-0.02765,0.024405,idle,0,0.020000000000000018
1.774,0.06575,0.019753,0.007469,0.023474,idle,0,0.020000000000000018
1.794,0.097579,0.045401,0.023566,0.02786,idle,0,0.020000000000000018
1.814,0.111977,0.044283,-0.007675,0.031144,idle,0,0.020000000000000018
1.834,0.082329,0.036734,-0.041546,0.032262,idle,0,0.020000000000000018
1.853,0.032527,0.044927,-0.033825,0.034795,idle,0,0.018999999999999906
1.873,0.04103,0.085171,-0.008833,0.044871,idle,0,0.020000000000000018
1.893,0.098919,0.097916,-0.005535,0.05548,idle,0,0.020000000000000018
1.913,0.106326,0.071002,-0.021459,0.058584,idle,0,0.020000000000000018
1.934,0.059439,0.040377,-0.018821,0.054943,idle,0,0.020999999999999908
1.953,0.04184,0.059557,0.013689,0.055865,idle,0,0.019000000000000128
1.973,0.075856,0.109986,0.037526,0.06669,idle,0,0.020000000000000018
1.992,0.104913,0.120493,0.024408,0.07745,idle,0,0.018999999999999906
2.013,0.057508,0.077617,-0.017707,0.077483,idle,0,0.020999999999999908
2.033,0.009044,0.011007,-0.031026,0.064188,idle,0,0.020000000000000018
2.052,0.008249,0.002866,-0.012121,0.051924,idle,0,0.019000000000000128
2.072,0.063716,0.020106,-0.004783,0.04556,idle,0,0.020000000000000018
2.092,0.158009,0.033465,-0.076181,0.043141,idle,0,0.020000000000000018
2.112,0.157393,0.015235,-0.076499,0.03756,idle,0,0.020000000000000018
2.132,0.132433,-0.051865,-0.006989,0.019675,idle,0,0.020000000000000018
2.151,0.124896,-0.026773,0.04063,0.010385,idle,0,0.018999999999999684
2.171,0.198348,0.002346,0.051745,0.008777,idle,0,0.020000000000000018
2.191,0.293973,0.027853,0.034688,0.012592,idle,0,0.020000000000000018
2.211,0.296336,0.014594,0.080114,0.012993,idle,0,0.020000000000000018
2.231,0.232721,0.000472,0.111972,0.010489,idle,0,0.020000000000000018
2.251,0.212531,0.04634,0.112543,0.017659,idle,0,0.020000000000000018
2.271,0.236311,0.053537,0.107919,0.024835,idle,0,0.020000000000000018
2.291,0.296485,0.033064,0.080072,0.02648,idle,0,0.020000000000000018
2.311,0.320679,0.023318,0.077446,0.025848,idle,0,0.020000000000000018
2.33,0.280331,0.01035,0.096838,0.022748,idle,0,0.019000000000000128
2.35,0.241084,0.025216,0.108912,0.023242,idle,0,0.020000000000000018
2.37,0.237512,0.033097,0.103237,0.025213,idle,0,0.020000000000000018
2.39,0.220133,0.051611,0.072428,0.030493,idle,0,0.020000000000000018
2.41,0.191481,0.078326,-0.012966,0.040059,idle,0,0.020000000000000018
2.43,0.190055,-0.021034,-0.041126,0.027841,idle,0,0.020000000000000018
2.449,0.193755,-0.003319,-0.031348,0.021609,idle,0,0.018999999999999684
2.469,0.112696,0.125913,-0.036422,0.04247,idle,0,0.020000000000000018
2.489,-0.004135,0.183737,0.010031,0.070723,idle,0,0.020000000000000018
2.509,-0.084975,0.210965,0.054112,0.098771,idle,0,0.020000000000000018
2.529,-0.077471,0.232102,0.080915,0.125438,idle,0,0.020000000000000018
2.549,-0.026673,0.168553,0.095388,0.134061,idle,0,0.020000000000000018
2.569,-0.009261,0.183059,0.14196,0.14386,idle,0,0.020000000000000018
2.589,-0.071157,0.135394,0.175409,0.142167,idle,0,0.020000000000000018
2.608,-0.149553,0.051971,0.204165,0.124128,idle,0,0.019000000000000128
2.628,-0.194585,0.004292,0.2292,0.100161,idle,0,0.020000000000000018
2.648,-0.224892,-0.046855,0.270239,0.070757,idle,0,0.020000000000000018
2.668,-0.278116,-0.134505,0.322997,0.029705,idle,0,0.020000000000000018
2.688,-0.369676,-0.218239,0.375213,-0.019884,idle,0,0.020000000000000018
2.708,-0.472199,-0.16526,0.34687,-0.048959,idle,0,0.020000000000000018
2.728,-0.514947,0.040789,0.235512,-0.031009,idle,0,0.020000000000000018
2.748,-0.420257,0.050581,0.222293,-0.014691,idle,0,0.020000000000000018
2.767,-0.330734,-0.072175,0.307066,-0.026188,idle,0,0.018999999999999684
2.788,-0.324877,-0.068687,0.349592,-0.034688,idle,0,0.020999999999999908
2.81,-0.288869,-0.019293,0.27717,-0.031609,idle,0,0.02200000000000024
2.827,-0.228289,0.079383,0.172542,-0.00941,idle,0,0.016999999999999904
2.847,-0.182423,0.052214,0.091999,0.002914,idle,0,0.020000000000000018
2.867,-0.150879,-0.004991,0.082631,0.001333,idle,0,0.020000000000000018
2.887,-0.145103,-0.004934,0.060298,8e-05,idle,0,0.020000000000000018
2.907,-0.113632,-0.001558,-0.022902,-0.000248,idle,0,0.020000000000000018
2.926,-0.017648,-0.020924,-0.072774,-0.004383,idle,0,0.019000000000000128
2.946,0.011489,0.02608,-0.062234,0.00171,idle,0,0.020000000000000018
2.966,-0.052234,0.05253,-0.054711,0.011874,idle,0,0.020000000000000018
2.986,-0.028457,0.03023,-0.075866,0.015545,idle,0,0.020000000000000018
3.006,0.003473,0.048914,-0.08892,0.022219,idle,0,0.019999999999999574
3.026,-0.027942,0.041725,-0.09248,0.02612,idle,0,0.020000000000000018
3.046,-0.007854,0.019224,-0.026545,0.024741,idle,0,0.020000000000000018
3.066,-0.014402,0.032979,0.05119,0.026388,idle,0,0.020000000000000018
3.085,0.002947,-0.025687,0.027888,0.015973,idle,0,0.019000000000000128
3.105,-0.00083,-0.000115,-0.001346,0.012756,idle,0,0.020000000000000018
3.125,-0.034514,0.00695,0.037901,0.011595,idle,0,0.020000000000000018
3.145,0.011131,-0.005667,-0.030783,0.008142,idle,0,0.020000000000000018
3.165,0.087462,0.01605,-0.069186,0.009724,idle,0,0.020000000000000018
3.185,0.034164,-0.00687,0.019389,0.006405,idle,0,0.020000000000000018
3.205,0.013405,-0.039751,0.083086,-0.002826,idle,0,0.020000000000000018
3.225,0.046591,-0.005505,0.054304,-0.003362,idle,0,0.020000000000000018
3.244,0.045662,-0.02751,0.035864,-0.008191,idle,0,0.019000000000000128
3.265,0.057081,-0.019242,0.05277,-0.010402,idle,0,0.020999999999999908
3.284,0.035088,0.030491,0.094255,-0.002223,idle,0,0.018999999999999684
3.304,0.054072,0.111875,0.066878,0.020596,idle,0,0.020000000000000018
3.324,0.093718,0.047854,0.013389,0.026048,idle,0,0.020000000000000018
3.344,0.134089,-0.002654,-0.0529,0.020308,idle,0,0.020000000000000018
3.364,0.13386,-0.005749,-0.005063,0.015096,idle,0,0.020000000000000018
3.388,0.064457,-0.015282,0.128439,0.009021,idle,0,0.02400000000000002
3.403,0.05939,-0.036256,0.082034,-3.5e-05,idle,0,0.015000000000000124
3.423,0.137245,0.001732,-0.030652,0.000319,idle,0,0.020000000000000018
3.443,0.13065,0.016653,-0.0276,0.003585,idle,0,0.020000000000000018
3.463,0.164128,0.110956,-0.202214,0.02506,idle,0,0.020000000000000018
3.483,0.146315,0.094105,-0.101232,0.038869,idle,0,0.020000000000000018
3.503,0.017376,-0.054827,0.069505,0.02013,idle,0,0.020000000000000018
3.523,0.001335,0.053953,-0.002157,0.026894,idle,0,0.020000000000000018
3.542,0.041589,0.078339,-0.137577,0.037183,idle,0,0.018999999999999684
3.562,0.05425,0.043153,-0.139166,0.038377,idle,0,0.020000000000000018
3.582,0.015925,0.051668,0.037274,0.041035,idle,0,0.020000000000000018
3.602,0.052027,-0.129855,0.182568,0.006857,idle,0,0.020000000000000018
3.622,0.119548,-0.285052,0.185629,-0.051524,idle,0,0.020000000000000018
3.642,0.107005,-0.261604,0.093058,-0.09354,idle,0,0.020000000000000018
3.662,0.017563,0.273046,-0.009302,-0.020223,idle,0,0.020000000000000018
3.681,-0.078771,0.564291,-0.09672,0.09668,idle,0,0.019000000000000128
3.701,-0.108185,0.233656,0.103576,0.124075,idle,0,0.020000000000000018
3.721,0.012908,-0.503698,0.197448,-0.001479,idle,0,0.020000000000000018
3.741,-0.010184,-0.325102,0.066256,-0.066204,idle,0,0.020000000000000018
3.761,-0.079871,0.059285,-0.085448,-0.041106,idle,0,0.020000000000000018
3.781,-0.013719,0.098501,0.036589,-0.013185,idle,0,0.020000000000000018
3.801,-0.013535,0.414932,-0.142003,0.072439,idle,0,0.020000000000000018
3.821,-0.029343,0.191628,-0.168107,0.096276,idle,0,0.020000000000000018
3.84,-0.015584,-0.495276,0.048514,-0.022034,idle,0,0.018999999999999684
3.86,-0.001919,-0.470751,0.163922,-0.111777,idle,0,0.020000000000000018
3.88,-0.02711,-0.13526,0.215888,-0.116474,idle,0,0.020000000000000018
3.902,0.082229,0.254503,-0.007093,-0.042279,idle,0,0.02200000000000024
3.92,0.085956,0.718353,-0.394935,0.109848,idle,0,0.017999999999999794
3.94,0.066697,0.133848,-0.09657,0.114648,idle,0,0.020000000000000018
3.959,0.007692,-0.118975,0.053331,0.067923,idle,0,0.019000000000000128
3.98,-0.025241,-0.053738,0.027431,0.043591,idle,0,0.020999999999999908
3.999,0.005701,-0.041597,0.001311,0.026553,idle,0,0.019000000000000128
4.019,0.006031,0.021157,0.00753,0.025474,idle,0,0.020000000000000018
4.039,0.001447,0.032352,-0.07162,0.02685,idle,0,0.019999999999999574
4.059,-0.015702,-0.049713,-0.037624,0.011537,idle,0,0.020000000000000462
4.079,-0.115894,-0.064299,-0.017312,-0.00363,idle,0,0.019999999999999574
4.099,-0.130633,-0.009915,0.015145,-0.004887,idle,0,0.020000000000000462
4.12,-0.097505,0.047843,0.024833,0.005659,idle,0,0.020999999999999908
4.139,-0.060624,0.051715,0.065514,0.01487,idle,0,0.019000000000000128
4.158,-0.054627,-0.05368,0.097295,0.00116,idle,0,0.019000000000000128
4.178,0.016516,-0.052227,0.007012,-0.009517,idle,0,0.019999999999999574
4.198,0.039476,0.048554,-0.05525,0.002097,idle,0,0.020000000000000462
4.218,0.035452,0.050337,-0.02621,0.011745,idle,0,0.019999999999999574
4.238,-0.032119,0.015227,0.093332,0.012441,idle,0,0.020000000000000462
4.258,-0.036186,0.041242,0.03853,0.018201,idle,0,0.019999999999999574
4.278,0.001931,0.014548,-0.005918,0.017471,idle,0,0.019999999999999574
4.298,0.020104,0.028109,0.013517,0.019598,idle,0,0.020000000000000462
4.318,0.007964,0.068545,0.049796,0.029388,idle,0,0.019999999999999574
4.337,-0.003261,0.059345,0.049331,0.035379,idle,0,0.019000000000000128
4.357,0.031127,0.031723,0.023598,0.034648,idle,0,0.020000000000000462
4.377,0.073382,0.008269,-0.007274,0.029372,idle,0,0.019999999999999574
4.397,0.08435,-0.023388,-0.010669,0.01882,idle,0,0.020000000000000462
4.417,0.048299,-0.056946,0.021391,0.003667,idle,0,0.019999999999999574
4.436,0.006438,-0.029068,0.038921,-0.00288,idle,0,0.019000000000000128
4.456,-0.025884,0.036107,0.05792,0.004917,idle,0,0.020000000000000462
4.476,-0.026504,0.038503,0.027022,0.011634,idle,0,0.019999999999999574
4.496,0.015084,-0.000314,-0.006691,0.009245,idle,0,0.020000000000000462
4.516,0.016786,-0.015105,0.00434,0.004375,idle,0,0.019999999999999574
4.536,-0.048734,0.009925,-0.002535,0.005485,idle,0,0.019999999999999574
4.556,-0.126985,0.005386,-0.019224,0.005465,idle,0,0.020000000000000462
4.576,-0.163573,0.019946,0.032535,0.008361,idle,0,0.019999999999999574
4.596,-0.134244,0.06606,0.065674,0.019901,idle,0,0.020000000000000462
4.616,-0.088156,0.042055,0.084297,0.024332,idle,0,0.019999999999999574
4.635,-0.076202,0.026594,0.142485,0.024784,idle,0,0.019000000000000128
4.655,0.00044,0.043271,0.098562,0.028482,idle,0,0.020000000000000462
4.675,0.06716,0.025328,0.07332,0.027851,idle,0,0.019999999999999574
4.695,-0.037446,-0.081472,0.129402,0.005986,idle,0,0.020000000000000462
4.715,-0.074752,-0.097197,0.081387,-0.01465,idle,0,0.019999999999999574
4.735,-0.013536,-0.011512,0.005022,-0.014023,idle,0,0.020000000000000462
4.755,-0.024755,0.029228,-0.035122,-0.005372,idle,0,0.019999999999999574
4.774,0.008774,0.004242,-0.026224,-0.00345,idle,0,0.019000000000000128
4.794,0.221198,-0.058924,0.08506,-0.014544,idle,0,0.019999999999999574
4.815,0.305565,-0.088239,0.192484,-0.029283,idle,0,0.021000000000000796
4.834,0.197337,-0.000674,0.086972,-0.023561,idle,0,0.01899999999999924
4.855,0.146394,0.028874,0.044362,-0.013074,idle,0,0.021000000000000796
4.874,0.095704,0.021102,0.094123,-0.006239,idle,0,0.01899999999999924
4.894,0.01777,-0.054828,0.078625,-0.015957,idle,0,0.020000000000000462
4.914,0.02858,0.033451,-0.075884,-0.006075,idle,0,0.019999999999999574
4.934,0.037161,0.236343,-0.283545,0.042408,idle,0,0.020000000000000462
4.953,-0.027285,0.078639,-0.274848,0.049655,idle,0,0.019000000000000128
4.973,-0.039574,0.037899,-0.113047,0.047303,idle,0,0.019999999999999574
4.993,0.004498,-0.058848,-0.021601,0.026073,idle,0,0.020000000000000462
5.015,0.085837,0.020328,-0.053282,0.024924,idle,0,0.021999999999999353
5.033,0.03346,-0.048355,-0.021578,0.010268,idle,0,0.018000000000000682
5.053,-0.008943,0.123289,-0.07283,0.032872,idle,0,0.019999999999999574
5.072,-0.012734,0.200889,-0.139171,0.066476,idle,0,0.019000000000000128
5.092,-0.031207,-0.005976,-0.151036,0.051985,idle,0,0.019999999999999574
5.112,-0.006439,-0.063521,-0.027373,0.028884,idle,0,0.020000000000000462
5.132,-0.032596,0.013875,0.060775,0.025882,idle,0,0.019999999999999574
5.152,-0.048202,0.066666,0.158202,0.034039,idle,0,0.020000000000000462
5.172,-0.025881,-0.092077,0.205663,0.008816,idle,0,0.019999999999999574
5.192,0.073022,-0.017536,0.08279,0.003545,idle,0,0.020000000000000462
5.212,-0.154165,0.104475,0.134084,0.023731,idle,0,0.019999999999999574
5.231,-0.133929,-0.133317,0.103782,-0.007678,idle,0,0.019000000000000128
5.251,0.161122,0.01161,0.221979,-0.003821,idle,0,0.020000000000000462
5.271,0.029647,-0.062737,0.122877,-0.015604,idle,0,0.019999999999999574
5.291,0.010193,0.044356,-0.231979,-0.003612,idle,0,0.020000000000000462
5.311,0.175515,0.111608,-0.224605,0.019432,idle,0,0.019999999999999574
5.331,0.047692,0.051331,0.242076,0.025812,idle,0,0.020000000000000462
5.351,-0.017666,-0.149865,0.342145,-0.009323,idle,0,0.019999999999999574
5.371,0.023148,0.035059,0.10557,-0.000447,idle,0,0.020000000000000462
5.39,0.047463,0.046552,0.06776,0.008953,idle,0,0.01899999999999924
5.41,0.052019,-0.059362,0.093752,-0.00471,idle,0,0.020000000000000462
5.43,0.001776,0.002763,0.018217,-0.003216,idle,0,0.019999999999999574
5.45,-0.04752,0.025219,-0.05439,0.002471,idle,0,0.020000000000000462
5.47,-0.04436,-0.01482,-0.015015,-0.000987,idle,0,0.019999999999999574
5.49,0.003167,0.017088,-0.026288,0.002628,idle,0,0.020000000000000462
5.51,0.019474,-0.00906,0.052783,0.00029,idle,0,0.019999999999999574
5.53,-0.002035,-0.017307,0.03936,-0.003229,idle,0,0.020000000000000462
5.55,0.041679,0.04289,0.037824,0.005995,idle,0,0.019999999999999574
5.569,0.072842,0.06375,-0.023405,0.017546,idle,0,0.019000000000000128
5.589,0.031236,0.003717,0.097649,0.01478,idle,0,0.020000000000000462
5.609,0.014231,-0.019721,0.136628,0.00788,idle,0,0.019999999999999574
5.629,-0.049524,0.012431,0.040922,0.00879,idle,0,0.019999999999999574
5.649,0.005258,0.10464,-0.186056,0.02796,idle,0,0.020000000000000462
5.669,-0.091953,-0.025662,-0.138374,0.017236,idle,0,0.019999999999999574
5.689,-0.095674,-0.089876,-0.007694,-0.004187,idle,0,0.020000000000000462
5.709,-0.031463,0.045839,-0.144606,0.005818,idle,0,0.019999999999999574
5.728,0.031655,0.095661,-0.20949,0.023787,idle,0,0.019000000000000128
5.748,-0.022759,-0.029811,-0.101842,0.013067,idle,0,0.020000000000000462
5.768,-0.084243,-0.073149,0.120028,-0.004176,idle,0,0.019999999999999574
5.788,0.0433,0.01954,0.030745,0.000567,idle,0,0.020000000000000462
5.808,0.000731,-0.011578,-0.051533,-0.001862,idle,0,0.019999999999999574
5.827,0.01178,-0.011847,0.112049,-0.003859,idle,0,0.019000000000000128
5.847,0.003013,-0.02552,0.216687,-0.008191,idle,0,0.020000000000000462
5.867,0.003649,-0.02505,0.004228,-0.011563,idle,0,0.019999999999999574
5.887,-0.020739,-0.145928,-0.223568,-0.038436,idle,0,0.019999999999999574
5.907,-0.105097,0.014249,0.031882,-0.027899,idle,0,0.020000000000000462
5.927,0.015333,0.079027,0.037033,-0.006514,idle,0,0.019999999999999574
5.947,-0.028543,0.015062,0.002982,-0.002199,idle,0,0.020000000000000462
5.967,0.059402,-0.051771,-0.192431,-0.012113,idle,0,0.019999999999999574
5.987,0.071967,-0.127413,-0.088558,-0.035173,idle,0,0.020000000000000462
6.007,-0.034376,-0.030156,0.08492,-0.034169,idle,0,0.019999999999999574
6.026,0.314735,0.133783,-0.05822,-0.000579,idle,0,0.019000000000000128
6.046,-0.019565,0.077076,0.054488,0.014952,idle,0,0.020000000000000462
6.066,-0.24921,0.042743,0.05111,0.02051,idle,0,0.019999999999999574
6.086,-0.107531,0.070619,0.078675,0.030532,idle,0,0.020000000000000462
6.106,-0.008722,0.064394,0.126971,0.037304,idle,0,0.019999999999999574
6.126,0.035943,-0.023598,0.01033,0.025124,idle,0,0.020000000000000462
6.145,-0.025136,0.061368,-0.089114,0.032373,idle,0,0.01899999999999924
6.165,-0.07237,0.124316,0.065384,0.050761,idle,0,0.020000000000000462
6.185,-0.121225,0.061361,0.112808,0.052881,idle,0,0.019999999999999574
6.205,-0.042038,-0.070903,0.021585,0.028124,idle,0,0.020000000000000462
6.225,0.057076,0.053384,-0.000637,0.033176,idle,0,0.019999999999999574
6.245,0.069143,0.169748,0.091298,0.060491,idle,0,0.020000000000000462
6.265,-0.028828,0.033205,0.022528,0.055034,idle,0,0.019999999999999574
6.285,0.259532,-0.187799,0.014329,0.006467,idle,0,0.020000000000000462
6.304,0.092506,-0.020942,-0.003531,0.000985,idle,0,0.019000000000000128
6.325,-0.134754,0.047217,0.053225,0.010232,idle,0,0.020999999999999908
6.344,-0.094381,-0.018458,0.170951,0.004494,idle,0,0.019000000000000128
6.364,0.084202,0.030723,-0.104635,0.00974,idle,0,0.019999999999999574
6.384,0.272552,-0.198168,-0.056588,-0.031842,idle,0,0.020000000000000462
6.404,0.04841,0.175526,-0.019105,0.009632,idle,0,0.019999999999999574
6.424,0.10184,0.029141,-0.081994,0.013534,idle,0,0.020000000000000462
6.444,0.026194,-0.243242,0.03019,-0.037822,idle,0,0.019999999999999574
6.463,-0.012803,-0.050125,-0.056299,-0.040282,idle,0,0.019000000000000128
6.483,-0.09601,0.072432,0.0589,-0.017739,idle,0,0.019999999999999574
6.503,-0.141555,0.059357,-0.04956,-0.00232,idle,0,0.020000000000000462
6.523,-0.052301,0.027215,-0.092224,0.003587,idle,0,0.019999999999999574
6.543,0.033879,-0.019669,0.039908,-0.001064,idle,0,0.020000000000000462
6.563,-0.002655,-0.005833,-0.089886,-0.002018,idle,0,0.019999999999999574
6.583,-0.039748,0.17952,-0.10536,0.03429,idle,0,0.020000000000000462
6.603,-0.113331,0.196752,-0.054365,0.066782,idle,0,0.019999999999999574
6.623,0.024799,-0.128557,0.145328,0.027714,idle,0,0.020000000000000462
6.642,0.083593,-0.038223,0.034656,0.014527,idle,0,0.019000000000000128
6.662,-0.024749,0.056553,-0.059074,0.022932,idle,0,0.019999999999999574
6.682,-0.016296,-0.026904,0.084156,0.012965,idle,0,0.020000000000000462
6.702,-0.00415,0.104333,0.086125,0.031238,idle,0,0.019999999999999574
6.722,-0.066319,0.001836,0.022213,0.025358,idle,0,0.020000000000000462
6.741,-0.015021,0.016492,0.074917,0.023585,idle,0,0.01899999999999924
6.762,0.049987,-0.049928,0.115529,0.008882,idle,0,0.020999999999999908
6.781,-0.006969,-0.168278,0.053609,-0.02655,idle,0,0.019000000000000128
6.801,-0.003331,0.099598,-0.032519,-0.00132,idle,0,0.020000000000000462
6.821,0.09393,0.122983,0.088895,0.02354,idle,0,0.019999999999999574
6.841,0.103976,0.045788,0.012708,0.02799,idle,0,0.020000000000000462
6.861,-0.008784,0.027468,0.008445,0.027886,idle,0,0.019999999999999574
6.881,-0.054215,-0.048245,0.008401,0.012659,idle,0,0.020000000000000462
6.901,-0.004582,-0.006128,-0.111662,0.008902,idle,0,0.019999999999999574
6.921,0.038024,0.107698,-0.055097,0.028661,idle,0,0.020000000000000462
6.94,0.001785,0.014464,-0.083313,0.025822,idle,0,0.019000000000000128
6.96,0.014747,0.005632,-0.004638,0.021784,idle,0,0.019999999999999574
6.98,0.023435,0.000874,0.056387,0.017602,idle,0,0.020000000000000462
7.0,0.013013,-0.015587,0.091945,0.010964,idle,0,0.019999999999999574
7.02,0.01668,-0.008331,0.047,0.007105,idle,0,0.019999999999999574
7.04,0.025303,0.024768,0.021674,0.010638,idle,0,0.020000000000000462
7.06,-0.025138,-0.018395,-0.010218,0.004831,idle,0,0.019999999999999574
7.08,-0.043871,-0.04881,0.009266,-0.005897,idle,0,0.020000000000000462
7.099,0.020938,0.042236,0.070614,0.003729,idle,0,0.019000000000000128
7.12,-0.002245,0.056777,-0.04417,0.014339,idle,0,0.020999999999999908
7.139,0.008151,-0.001851,-0.043328,0.011101,idle,0,0.019000000000000128
7.159,0.012263,-0.090902,0.034145,-0.0093,idle,0,0.019999999999999574
7.179,0.040455,-0.031297,0.060762,-0.013699,idle,0,0.020000000000000462
7.199,-0.011935,0.027859,0.043956,-0.005388,idle,0,0.019999999999999574
7.22,-0.030997,0.005633,0.046568,-0.003183,idle,0,0.020999999999999908
7.239,-0.010081,-0.02381,0.030213,-0.007309,idle,0,0.019000000000000128
7.258,-0.0064,-0.001082,0.005688,-0.006063,idle,0,0.019000000000000128
7.278,0.058305,-0.043163,0.068198,-0.013483,idle,0,0.019999999999999574
7.298,0.023264,-0.060163,0.025344,-0.022819,idle,0,0.020000000000000462
7.318,-0.0286,0.024249,-0.0169,-0.013405,idle,0,0.019999999999999574
7.338,-0.081149,0.000298,0.005614,-0.010665,idle,0,0.020000000000000462
7.358,-0.033114,-0.008065,0.040551,-0.010145,idle,0,0.019999999999999574
7.378,0.037363,-0.050265,0.048713,-0.018169,idle,0,0.020000000000000462
7.397,-0.023055,-0.121527,0.066634,-0.038841,idle,0,0.019000000000000128
7.417,-0.045076,-0.131931,0.145452,-0.057459,idle,0,0.019999999999999574
7.437,-0.066374,0.098513,0.045402,-0.026264,idle,0,0.020000000000000462
7.457,-0.024865,0.174562,0.026275,0.013901,idle,0,0.019999999999999574
7.477,0.232241,0.045973,0.111986,0.020315,idle,0,0.020000000000000462
7.497,0.095256,0.054251,-0.004147,0.027103,idle,0,0.019999999999999574
7.517,0.19561,-0.066336,-0.168377,0.008415,idle,0,0.020000000000000462
7.537,0.061323,-0.088837,-0.118631,-0.011036,idle,0,0.019999999999999574
7.556,-0.01038,-0.071698,-0.067198,-0.023168,idle,0,0.019000000000000128
7.576,-0.061793,-0.185107,-0.034099,-0.055556,idle,0,0.019999999999999574
7.596,-0.195779,0.272385,-0.112697,0.010032,idle,0,0.020000000000000462
7.616,-0.234727,0.189088,-0.111384,0.045843,idle,0,0.019999999999999574
7.636,-0.216457,0.17271,-0.079273,0.071217,idle,0,0.020000000000000462
7.656,-0.026076,0.108412,0.031899,0.078656,idle,0,0.019999999999999574
7.676,-0.094195,0.086479,0.039038,0.080221,idle,0,0.020000000000000462
7.696,0.041539,-0.012638,-0.243116,0.061649,idle,0,0.019999999999999574
7.716,0.156704,-0.211963,0.164284,0.006926,idle,0,0.020000000000000462
7.735,0.144409,-0.165497,0.264484,-0.027558,idle,0,0.019000000000000128
7.755,0.228385,0.0919,0.089133,-0.003667,idle,0,0.019999999999999574
7.775,0.077376,0.145253,-0.007798,0.026117,idle,0,0.020000000000000462
7.795,-0.06809,-0.098748,0.014125,0.001144,idle,0,0.019999999999999574
7.815,-0.236673,-0.129103,0.108647,-0.024905,idle,0,0.020000000000000462
7.835,-0.111599,-0.09136,-0.037493,-0.038196,idle,0,0.019999999999999574
7.854,0.184365,-0.063908,-0.00947,-0.043339,idle,0,0.019000000000000128
7.874,0.241223,0.145821,-0.078425,-0.005507,idle,0,0.019999999999999574
7.894,0.100822,-0.044734,-0.198022,-0.013352,idle,0,0.020000000000000462
7.914,-0.195296,-0.14388,0.136365,-0.039458,idle,0,0.019999999999999574
7.934,-0.041456,0.206249,-0.057577,0.009684,idle,0,0.020000000000000462
7.954,0.089092,0.02661,-0.195511,0.013069,idle,0,0.019999999999999574
7.974,0.048834,0.073786,-0.151508,0.025212,idle,0,0.020000000000000462
7.994,-0.032585,0.057643,-0.185342,0.031698,idle,0,0.019999999999999574
8.014,-0.106989,0.136211,-0.139797,0.052601,idle,0,0.019999999999999574
8.034,-0.096427,0.023016,0.130756,0.046684,idle,0,0.02000000000000135
8.053,0.014602,-0.16267,0.4124,0.004813,idle,0,0.019000000000000128
8.073,0.07064,0.022277,0.116668,0.008306,idle,0,0.019999999999999574
8.093,-0.013732,0.118185,-0.295139,0.030282,idle,0,0.019999999999999574
8.113,-0.072937,0.034903,0.067577,0.031206,idle,0,0.019999999999999574
8.133,0.038755,-0.097305,0.266873,0.005504,idle,0,0.019999999999999574
8.153,-0.088689,0.040991,0.266648,0.012601,idle,0,0.02000000000000135
8.173,-0.039826,-0.078522,0.135008,-0.005623,idle,0,0.019999999999999574
8.192,0.03935,0.016433,-0.084801,-0.001212,idle,0,0.019000000000000128
8.212,0.01357,0.20025,-0.126025,0.03908,idle,0,0.019999999999999574
8.232,0.008041,0.019625,0.169822,0.035189,idle,0,0.019999999999999574
8.252,0.024059,0.268767,0.098773,0.081905,idle,0,0.02000000000000135
8.272,0.04915,-0.087187,-0.024073,0.048087,idle,0,0.019999999999999574
8.292,0.009504,-0.294939,-0.008057,-0.020518,idle,0,0.019999999999999574
8.312,-0.026928,0.069738,-0.019336,-0.002467,idle,0,0.019999999999999574
8.331,0.01079,0.05771,0.078027,0.009568,idle,0,0.019000000000000128
8.351,-0.050582,-0.021724,0.186071,0.00331,idle,0,0.02000000000000135
8.371,0.15307,-0.057915,0.03287,-0.008935,idle,0,0.019999999999999574
8.391,0.05454,0.03642,-0.000334,0.000136,idle,0,0.019999999999999574
8.411,-0.071003,0.096523,-0.14492,0.019413,idle,0,0.019999999999999574
8.433,-0.072133,0.002421,-0.005964,0.016015,idle,0,0.02200000000000024
8.452,0.016689,0.005407,0.402371,0.013893,idle,0,0.019000000000000128
8.47,0.039515,0.04634,0.04403,0.020383,idle,0,0.018000000000000682
8.49,0.170782,0.02268,-0.284697,0.020842,idle,0,0.019999999999999574
8.51,0.029044,-0.272113,0.046856,-0.037749,idle,0,0.019999999999999574
8.53,-0.063479,0.236429,0.390816,0.017087,idle,0,0.019999999999999574
8.55,0.156186,-0.183434,-0.369801,-0.023018,idle,0,0.02000000000000135
8.57,-0.166325,0.018604,-0.415253,-0.014693,idle,0,0.019999999999999574
8.59,-0.174291,-0.185174,-0.047167,-0.04879,idle,0,0.019999999999999574
8.61,0.200585,0.127159,-0.131131,-0.0136,idle,0,0.019999999999999574
8.63,0.089318,-0.032004,-0.13766,-0.017281,idle,0,0.02000000000000135
8.65,-0.063052,0.228754,-0.141657,0.031926,idle,0,0.019999999999999574
8.669,-0.160317,0.028118,0.292361,0.031165,idle,0,0.019000000000000128
8.689,0.085372,-0.168084,0.387559,-0.008685,idle,0,0.019999999999999574
8.709,0.074747,-0.007447,-0.287448,-0.008437,idle,0,0.019999999999999574
8.729,-0.238637,0.293989,-0.115638,0.052048,idle,0,0.019999999999999574
8.749,-0.094667,0.041842,0.233084,0.050007,idle,0,0.02000000000000135
8.769,0.118472,-0.069746,0.50377,0.026056,idle,0,0.019999999999999574
8.789,-0.008325,-0.032695,0.200679,0.014306,idle,0,0.019999999999999574
8.808,-0.029884,-0.004861,-0.072511,0.010473,idle,0,0.019000000000000128
8.828,-0.027266,-0.02026,0.196459,0.004326,idle,0,0.019999999999999574
8.848,-0.058298,0.16459,0.285066,0.036379,idle,0,0.02000000000000135
8.868,-0.294335,-0.043653,0.324694,0.020372,idle,0,0.019999999999999574
8.888,-0.013688,-0.347279,-0.795129,-0.053158,idle,0,0.019999999999999574
8.908,0.402393,0.298256,-0.191961,0.017125,idle,0,0.019999999999999574
8.928,-0.212812,-0.06059,-0.082748,0.001582,idle,0,0.02000000000000135
8.948,-0.082488,-0.001942,0.339678,0.000877,idle,0,0.019999999999999574
8.967,0.177297,-0.030659,-0.112141,-0.00543,idle,0,0.019000000000000128
8.987,0.155508,0.133454,-0.146177,0.022347,idle,0,0.019999999999999574
9.007,-0.079449,-0.010953,0.233931,0.015687,idle,0,0.019999999999999574
9.029,0.009398,0.159936,0.374532,0.044537,idle,0,0.02200000000000024
9.047,0.0822,-0.084458,-0.199627,0.018738,idle,0,0.018000000000000682
9.067,0.027584,-0.070356,-0.213732,0.000919,idle,0,0.019999999999999574
9.086,-0.039886,0.119514,-0.041617,0.024638,idle,0,0.019000000000000128
9.106,0.003363,0.002237,0.128317,0.020158,idle,0,0.019999999999999574
9.126,0.229527,-0.134076,-0.023315,-0.010689,idle,0,0.019999999999999574
9.146,-0.162936,-0.049941,-0.10913,-0.018539,idle,0,0.02000000000000135
9.166,-0.041061,0.383767,0.341158,0.061922,idle,0,0.019999999999999574
9.186,0.044429,0.022643,0.025494,0.054066,idle,0,0.019999999999999574
9.206,0.151624,-0.161398,-0.020293,0.010973,idle,0,0.019999999999999574
9.226,-0.261279,-0.020358,-0.187786,0.004707,idle,0,0.02000000000000135
9.245,-0.144236,0.372084,-0.108037,0.078182,idle,0,0.01899999999999835
9.265,0.024515,-0.007172,0.128667,0.061112,idle,0,0.02000000000000135
9.285,0.082274,-0.097569,0.047574,0.029375,idle,0,0.019999999999999574
9.305,-0.163573,-0.061827,0.046774,0.011135,idle,0,0.019999999999999574
9.325,-0.247933,0.448776,-0.193241,0.098663,idle,0,0.019999999999999574
9.345,0.008237,-0.096926,0.055403,0.059545,idle,0,0.02000000000000135
9.365,0.125708,-0.060241,0.0967,0.035588,idle,0,0.019999999999999574
9.385,-0.042201,-0.185349,0.081324,-0.008599,idle,0,0.019999999999999574
9.404,-0.166932,0.218896,-0.069778,0.0369,idle,0,0.019000000000000128
9.426,0.05227,0.054642,-0.03818,0.040448,idle,0,0.02200000000000024
9.444,0.11417,-0.159996,0.178264,0.000359,idle,0,0.018000000000000682
9.464,0.045444,-0.230438,0.146085,-0.0458,idle,0,0.019999999999999574
9.484,-0.040192,0.030009,-0.149451,-0.030638,idle,0,0.019999999999999574
9.504,0.043889,0.319795,0.174916,0.039448,idle,0,0.019999999999999574
9.524,0.106942,-0.172254,0.18105,-0.002892,idle,0,0.019999999999999574
9.544,-0.052106,-0.250835,0.105905,-0.052481,idle,0,0.02000000000000135
9.563,0.090579,0.030625,-0.234783,-0.03586,idle,0,0.019000000000000128
9.583,0.100446,0.323911,0.382343,0.036095,idle,0,0.019999999999999574
9.603,-0.141831,-0.121711,0.128874,0.004534,idle,0,0.019999999999999574
9.625,0.018238,-0.201091,-0.1676,-0.036591,idle,0,0.02200000000000024
9.644,-0.003546,0.031328,-0.174569,-0.023007,idle,0,0.019000000000000128
9.663,0.119252,-0.01454,0.289443,-0.021314,idle,0,0.019000000000000128
9.683,-0.095581,0.042297,0.399481,-0.008592,idle,0,0.019999999999999574
9.702,-0.011241,0.175665,-0.327041,0.028259,idle,0,0.019000000000000128
9.723,0.10372,-0.214922,-0.27886,-0.020377,idle,0,0.021000000000000796
9.742,-0.006479,-0.119666,0.345849,-0.040235,idle,0,0.019000000000000128
9.762,0.007847,0.25997,0.489618,0.019806,idle,0,0.019999999999999574
9.782,0.08793,0.211138,-0.271338,0.058073,idle,0,0.019999999999999574
9.802,0.1031,-0.288567,-0.444991,-0.011255,idle,0,0.019999999999999574
9.822,-0.092742,-0.233388,0.106318,-0.055682,idle,0,0.019999999999999574
9.842,0.067126,0.416205,0.70276,0.038696,idle,0,0.02000000000000135
9.862,0.082206,0.099231,-0.287188,0.050803,idle,0,0.019999999999999574
9.881,0.000523,-0.191332,-0.412777,0.002376,idle,0,0.019000000000000128
9.901,0.024397,-0.161632,0.042685,-0.030426,idle,0,0.019999999999999574
9.921,-0.017589,0.094419,0.439548,-0.005457,idle,0,0.019999999999999574
9.941,0.056164,0.232684,0.163593,0.042171,idle,0,0.02000000000000135
9.961,0.06326,-0.090371,-0.487262,0.015663,idle,0,0.019999999999999574
9.981,-0.092018,-0.233439,-0.103035,-0.034158,idle,0,0.019999999999999574
10.001,-0.051425,-0.0035,0.273893,-0.028026,idle,0,0.019999999999999574
10.021,0.036458,0.271736,0.382295,0.031927,idle,0,0.02000000000000135
10.04,0.036434,0.166766,-0.362088,0.058894,idle,0,0.01899999999999835
10.06,-0.051765,-0.315377,-0.224408,-0.01596,idle,0,0.02000000000000135
10.08,0.041159,-0.173548,0.121157,-0.047477,idle,0,0.019999999999999574
10.1,0.059859,0.15556,0.262246,-0.00687,idle,0,0.019999999999999574
10.121,-0.020328,0.254125,0.036611,0.045329,idle,0,0.021000000000000796
10.14,-0.01015,-0.075756,-0.181792,0.021112,idle,0,0.019000000000000128
10.16,-0.00441,-0.192548,-0.087333,-0.02162,idle,0,0.019999999999999574
10.179,0.06488,-0.044188,-0.03685,-0.026133,idle,0,0.019000000000000128
10.199,-0.019176,0.243705,0.035709,0.027834,idle,0,0.019999999999999574
10.22,0.033688,0.030191,0.15461,0.028306,idle,0,0.021000000000000796
10.24,-0.064077,-0.098662,-0.079351,0.002912,idle,0,0.019999999999999574
10.259,0.053997,-0.089437,-0.111858,-0.015558,idle,0,0.019000000000000128
10.279,0.014724,0.052714,-0.161465,-0.001903,idle,0,0.019999999999999574
10.299,-0.00176,0.046176,0.105654,0.007712,idle,0,0.019999999999999574
10.319,0.026504,-0.041561,0.13704,-0.002142,idle,0,0.02000000000000135
10.339,-0.087928,-0.045792,-0.125689,-0.010872,idle,0,0.019999999999999574
10.358,0.039954,0.075916,-0.289592,0.006486,idle,0,0.019000000000000128
10.378,0.02766,-0.097185,0.004605,-0.014249,idle,0,0.019999999999999574
10.398,0.027638,0.024063,0.165801,-0.006586,idle,0,0.019999999999999574
10.418,-0.030382,0.083679,0.017499,0.011467,idle,0,0.019999999999999574
10.438,0.014598,-0.068474,-0.29256,-0.004521,idle,0,0.02000000000000135
10.458,0.061162,-0.147405,-0.046243,-0.033098,idle,0,0.019999999999999574
10.477,0.033162,0.024398,0.092528,-0.021599,idle,0,0.019000000000000128
10.498,-0.066812,0.194955,0.026097,0.021712,idle,0,0.02099999999999902
10.518,0.022111,0.011857,-0.12594,0.019741,idle,0,0.02000000000000135
10.537,0.048109,-0.139631,0.033611,-0.012133,idle,0,0.019000000000000128
10.557,-0.006296,-0.065408,0.048902,-0.022788,idle,0,0.019999999999999574
10.577,0.006097,0.059452,0.022515,-0.00634,idle,0,0.019999999999999574
10.597,0.006837,0.066134,-0.142605,0.008155,idle,0,0.019999999999999574
10.617,0.060927,-0.050353,0.065959,-0.003547,idle,0,0.02000000000000135
10.637,0.019835,-0.049109,0.103662,-0.012659,idle,0,0.019999999999999574
10.657,-0.007992,0.050709,0.042489,1.4e-05,idle,0,0.019999999999999574
10.676,0.038077,0.043543,-0.174068,0.00872,idle,0,0.019000000000000128
10.697,0.009588,-0.019704,0.032598,0.003035,idle,0,0.02099999999999902
10.716,0.022049,-0.042126,0.165699,-0.005997,idle,0,0.019000000000000128
10.736,0.005738,0.042669,0.0475,0.003736,idle,0,0.02000000000000135
10.756,-0.051824,0.074629,-0.153812,0.017915,idle,0,0.019999999999999574
10.776,0.033677,-0.032831,-0.047906,0.007766,idle,0,0.019999999999999574
10.795,0.021051,0.007528,0.173455,0.007718,idle,0,0.019000000000000128
10.816,0.05027,-0.025518,0.032222,0.001071,idle,0,0.021000000000000796
10.836,-0.064211,0.084577,-0.121755,0.017772,idle,0,0.019999999999999574
10.855,-0.058399,-0.012686,0.009655,0.011681,idle,0,0.019000000000000128
10.875,0.070629,0.01382,0.138267,0.012108,idle,0,0.019999999999999574
10.895,0.078,0.007649,-0.0355,0.011217,idle,0,0.019999999999999574
10.915,-0.000861,0.002694,-0.010906,0.009512,idle,0,0.019999999999999574
10.935,-0.063385,0.024952,-0.05104,0.0126,idle,0,0.02000000000000135
10.955,0.044032,0.025122,0.089136,0.015104,idle,0,0.019999999999999574
10.975,0.050152,0.034692,0.02596,0.019022,idle,0,0.019999999999999574
10.994,0.060847,-0.032586,-0.020549,0.0087,idle,0,0.019000000000000128
11.015,0.000781,0.001501,-0.046531,0.00726,idle,0,0.021000000000000796
11.035,-0.029162,0.036359,0.134431,0.01308,idle,0,0.019999999999999574
11.054,0.075877,0.0533,0.126843,0.021124,idle,0,0.019000000000000128
11.074,0.089339,-0.023278,-0.243909,0.012243,idle,0,0.019999999999999574
11.094,-0.036347,-0.107694,0.030838,-0.011744,idle,0,0.019999999999999574
11.114,0.046782,0.121112,0.162075,0.014827,idle,0,0.02000000000000135
11.134,0.186158,0.057998,0.13788,0.023461,idle,0,0.019999999999999574
11.153,0.020505,-0.102177,-0.194946,-0.001666,idle,0,0.019000000000000128
11.173,0.038137,-0.021777,0.060302,-0.005688,idle,0,0.019999999999999574
11.193,0.178735,0.129335,0.269644,0.021316,idle,0,0.019999999999999574
11.213,-0.016141,0.119714,0.119532,0.040996,idle,0,0.019999999999999574
11.233,0.143963,-0.203544,-0.380962,-0.007912,idle,0,0.02000000000000135
11.253,0.297979,-0.025057,0.009049,-0.011341,idle,0,0.019999999999999574
11.272,0.133783,0.155915,0.282009,0.02211,idle,0,0.019000000000000128
11.293,-0.405882,0.07176,0.098776,0.03204,idle,0,0.02099999999999902
11.313,0.226671,-0.1559,-0.271472,-0.005548,idle,0,0.02000000000000135
11.333,0.29369,0.038443,-0.120512,0.00325,idle,0,0.019999999999999574
11.352,0.253766,0.086204,0.211884,0.019841,idle,0,0.019000000000000128
11.372,-0.619043,0.025925,0.103852,0.021058,idle,0,0.019999999999999574
11.392,0.256183,-0.152252,-0.277514,-0.013604,idle,0,0.019999999999999574
11.412,0.202321,0.008714,-0.038581,-0.009141,idle,0,0.02000000000000135
11.432,0.19169,0.212928,0.276217,0.035273,idle,0,0.019999999999999574
11.452,-0.740254,-0.183684,-0.091478,-0.008518,idle,0,0.019999999999999574
11.471,0.34915,-0.018991,-0.148154,-0.010613,idle,0,0.019000000000000128
11.491,0.236644,0.123107,0.111441,0.016131,idle,0,0.019999999999999574
11.511,-0.268469,0.177211,0.178409,0.048347,idle,0,0.019999999999999574
11.531,-0.35365,-0.268645,-0.277339,-0.015051,idle,0,0.02000000000000135
11.551,0.387762,-0.138087,-0.257482,-0.039658,idle,0,0.019999999999999574
11.57,0.034982,0.330178,0.246789,0.034309,idle,0,0.019000000000000128
11.59,-0.25712,0.254203,0.531173,0.078288,idle,0,0.019999999999999574
11.61,-0.180879,-0.200472,-0.295916,0.022536,idle,0,0.019999999999999574
11.63,0.356991,-0.298128,-0.513434,-0.041597,idle,0,0.02000000000000135
11.65,-0.030394,0.233911,0.034883,0.013505,idle,0,0.019999999999999574
11.67,-0.047758,0.25739,0.723824,0.062282,idle,0,0.019999999999999574
11.69,-0.371087,0.015704,0.014691,0.052966,idle,0,0.019999999999999574
11.71,0.433711,-0.157741,-0.416146,0.010825,idle,0,0.02000000000000135
11.73,0.103851,0.147083,0.031493,0.038077,idle,0,0.019999999999999574
11.749,-0.123564,0.184843,0.43812,0.06743,idle,0,0.019000000000000128
11.769,-0.453583,-0.161608,-0.188212,0.021622,idle,0,0.019999999999999574
11.789,0.452009,-0.209293,-0.416668,-0.024561,idle,0,0.019999999999999574
11.809,0.079895,0.122567,0.056211,0.004865,idle,0,0.019999999999999574
11.829,-0.120379,0.28366,0.305889,0.060624,idle,0,0.02000000000000135
11.849,-0.309716,-0.222314,0.089931,0.004036,idle,0,0.019999999999999574
11.868,0.283187,-0.066867,-0.265844,-0.010144,idle,0,0.019000000000000128
11.888,0.125788,0.040192,0.01432,-7.7e-05,idle,0,0.019999999999999574
11.908,-0.194179,0.12057,0.105974,0.024052,idle,0,0.019999999999999574
11.929,-0.067673,-0.118547,0.04831,-0.004467,idle,0,0.021000000000000796
11.948,0.22215,-0.067932,-0.2391,-0.01716,idle,0,0.019000000000000128
11.968,-0.061042,0.16423,0.056189,0.019118,idle,0,0.019999999999999574
11.988,-0.217205,-0.052365,0.162481,0.004821,idle,0,0.019999999999999574
12.008,0.085594,-0.118487,-0.164514,-0.01984,idle,0,0.019999999999999574
12.028,0.044544,0.044824,-0.055973,-0.006908,idle,0,0.02000000000000135
12.047,-0.19967,0.116134,0.006197,0.017701,idle,0,0.019000000000000128
12.068,-0.245507,-0.177238,-0.00597,-0.021287,idle,0,0.02099999999999902
12.087,-0.076621,-0.034353,-0.085229,-0.0239,idle,0,0.019000000000000128
12.107,0.001737,0.212546,0.056701,0.023389,idle,0,0.019999999999999574
12.127,-0.237772,-0.075264,-0.014409,0.003658,idle,0,0.02000000000000135
12.147,-0.218724,-0.061713,-0.142555,-0.009416,idle,0,0.019999999999999574
12.167,-0.034904,-0.129605,-0.271836,-0.033454,idle,0,0.019999999999999574
12.186,-0.120226,0.095108,-0.000852,-0.007741,idle,0,0.019000000000000128
12.206,-0.210511,-0.078994,-0.069947,-0.021992,idle,0,0.019999999999999574
12.226,-0.099605,-0.013779,-0.024152,-0.020349,idle,0,0.02000000000000135
12.246,-0.001568,0.113853,0.083488,0.006491,idle,0,0.019999999999999574
12.266,-0.19285,0.106364,0.166589,0.026466,idle,0,0.019999999999999574
12.286,-0.156713,-0.060636,-0.0484,0.009045,idle,0,0.019999999999999574
12.306,-0.084018,-0.179401,-0.261717,-0.028644,idle,0,0.019999999999999574
12.326,0.036088,0.054881,-0.126141,-0.011939,idle,0,0.02000000000000135
12.346,-0.162399,0.025297,0.164075,-0.004492,idle,0,0.019999999999999574
12.365,-0.11329,0.031808,-0.014829,0.002768,idle,0,0.019000000000000128
12.385,0.0097,-0.166235,-0.23861,-0.031033,idle,0,0.019999999999999574
12.405,0.020883,0.000182,0.060289,-0.02479,idle,0,0.019999999999999574
12.425,-0.154986,0.076197,0.175812,-0.004592,idle,0,0.02000000000000135
12.445,-0.055581,0.038412,-0.072122,0.004009,idle,0,0.019999999999999574
12.465,0.092953,-0.100088,-0.147633,-0.016811,idle,0,0.019999999999999574
12.485,-0.073475,0.065968,0.256361,-0.000255,idle,0,0.019999999999999574
12.504,-0.126908,-0.009454,0.018515,-0.002095,idle,0,0.019000000000000128
12.528,0.030464,-0.055145,-0.231168,-0.012705,idle,0,0.02400000000000091
12.544,0.06408,-0.054735,-0.172413,-0.021111,idle,0,0.016000000000000014
12.564,-0.0596,0.009073,0.214482,-0.015074,idle,0,0.019999999999999574
12.584,-0.156326,0.024114,-0.008544,-0.007236,idle,0,0.019999999999999574
12.604,0.025156,-0.01059,-0.174672,-0.007907,idle,0,0.019999999999999574
12.624,0.021021,-0.043536,-0.008859,-0.015033,idle,0,0.02000000000000135
12.643,-0.002649,0.06865,0.253737,0.001704,idle,0,0.019000000000000128
12.663,-0.102342,0.015727,-0.103663,0.004508,idle,0,0.019999999999999574
12.684,0.057404,-0.07766,-0.204094,-0.011925,idle,0,0.02099999999999902
12.703,-0.021236,0.066627,0.001406,0.003785,idle,0,0.019000000000000128
12.723,-0.032388,-0.006124,0.220081,0.001803,idle,0,0.02000000000000135
12.743,-0.070559,-0.038073,-0.172436,-0.006172,idle,0,0.019999999999999574
12.763,0.050367,-0.021995,-0.232134,-0.009336,idle,0,0.019999999999999574
12.783,0.015687,-0.016399,0.100195,-0.010749,idle,0,0.019999999999999574
12.802,-0.105214,0.032321,0.120516,-0.002135,idle,0,0.019000000000000128
12.823,-0.016998,-0.000489,-0.050041,-0.001806,idle,0,0.021000000000000796
12.842,0.032069,0.027426,-0.161719,0.00404,idle,0,0.019000000000000128
12.862,0.005527,-0.047623,0.014211,-0.006292,idle,0,0.019999999999999574
12.882,-0.077673,0.077465,0.204386,0.010459,idle,0,0.019999999999999574
12.902,-0.065201,-0.020582,-0.130572,0.004251,idle,0,0.019999999999999574
12.922,0.058142,0.001607,-0.031706,0.003722,idle,0,0.02000000000000135
12.942,0.010959,0.076299,0.070779,0.018238,idle,0,0.019999999999999574
12.962,-0.071203,-0.008683,0.09945,0.012854,idle,0,0.019999999999999574
12.981,-0.081584,-0.011782,-0.190169,0.007926,idle,0,0.019000000000000128
13.001,0.061504,-0.058074,-0.03684,-0.005274,idle,0,0.019999999999999574
13.021,-0.008302,0.11974,0.230125,0.019729,idle,0,0.02000000000000135
13.041,-0.048805,0.054991,0.072582,0.026782,idle,0,0.019999999999999574
13.061,-0.046952,-0.027947,-0.194991,0.015836,idle,0,0.019999999999999574
13.081,0.038848,-0.015117,0.088657,0.009645,idle,0,0.019999999999999574
13.1,0.051784,0.089589,0.15125,0.025634,idle,0,0.019000000000000128
13.121,-0.020348,-0.029055,-0.041067,0.014696,idle,0,0.021000000000000796
13.14,-0.0204,-0.035685,-0.041868,0.00462,idle,0,0.019000000000000128
13.16,0.13251,-0.016853,-0.012456,0.000325,idle,0,0.019999999999999574
13.18,0.016707,0.058063,0.039954,0.011873,idle,0,0.019999999999999574
13.2,-0.018315,0.050889,0.026184,0.019676,idle,0,0.019999999999999574
13.22,0.044602,-0.113701,-0.031433,-0.006999,idle,0,0.02000000000000135
13.24,0.265341,-0.04423,0.182388,-0.014445,idle,0,0.019999999999999574
13.26,-0.041975,0.130749,-0.109011,0.014594,idle,0,0.019999999999999574
13.279,0.153344,-0.115345,-0.239452,-0.011394,idle,0,0.019000000000000128
13.299,0.146056,-0.133287,0.101289,-0.035773,idle,0,0.019999999999999574
13.32,0.138045,-0.00439,0.396507,-0.029496,idle,0,0.021000000000000796
13.339,0.149498,-0.060322,0.202936,-0.035661,idle,0,0.019000000000000128
13.359,0.109649,0.133583,-0.08049,-0.001812,idle,0,0.019999999999999574
13.379,0.13436,-0.123393,-0.19402,-0.026129,idle,0,0.019999999999999574
13.399,0.103011,-0.147193,0.138683,-0.050341,idle,0,0.019999999999999574
13.419,0.148983,-0.16447,0.112614,-0.073167,idle,0,0.02000000000000135
13.438,0.009772,0.173813,0.259998,-0.023771,idle,0,0.019000000000000128
13.458,0.01428,0.080497,0.024544,-0.002918,idle,0,0.019999999999999574
13.478,0.068556,-0.160782,-0.169982,-0.034491,idle,0,0.019999999999999574
13.498,0.064538,-0.135261,0.155278,-0.054645,idle,0,0.019999999999999574
13.518,-0.031626,0.116402,0.390806,-0.020435,idle,0,0.02000000000000135
13.538,-0.074638,0.273751,-0.072211,0.038402,idle,0,0.019999999999999574
13.558,0.038652,-0.087859,-0.260261,0.01315,idle,0,0.019999999999999574
13.577,0.007825,-0.229693,0.074948,-0.035419,idle,0,0.019000000000000128
13.597,0.00317,-0.030864,0.321159,-0.034508,idle,0,0.019999999999999574
13.617,-0.035267,0.287522,0.246421,0.029898,idle,0,0.02000000000000135
13.637,-0.048438,0.035402,-0.303448,0.030999,idle,0,0.019999999999999574
13.658,0.062714,-0.02758,-0.116515,0.019283,idle,0,0.02099999999999902
13.677,0.065336,-0.148435,0.03698,-0.014261,idle,0,0.019000000000000128
13.697,0.059232,0.016463,0.173346,-0.008116,idle,0,0.019999999999999574
13.717,-0.107603,0.254939,-0.043358,0.044495,idle,0,0.02000000000000135
13.737,-0.04192,-0.030637,-0.196518,0.029469,idle,0,0.019999999999999574
13.756,0.080723,-0.122171,-0.068665,-0.000859,idle,0,0.019000000000000128
13.776,-0.003435,-0.054139,0.09176,-0.011515,idle,0,0.019999999999999574
13.796,-0.038265,0.109398,0.16315,0.012668,idle,0,0.019999999999999574
13.816,-0.08403,0.076394,-0.029126,0.025413,idle,0,0.02000000000000135
13.836,0.009185,0.002408,-0.053968,0.020812,idle,0,0.019999999999999574
13.856,0.083383,-0.087728,0.034477,-0.000896,idle,0,0.019999999999999574
13.876,0.075356,-0.029248,0.081523,-0.006567,idle,0,0.019999999999999574
13.896,0.008549,-0.010592,0.126242,-0.007372,idle,0,0.02000000000000135
13.916,-0.001266,0.065737,-0.087005,0.00725,idle,0,0.019999999999999574
13.935,0.046014,0.023469,0.007629,0.010494,idle,0,0.019000000000000128
13.955,0.107458,-0.113575,-0.013464,-0.01432,idle,0,0.019999999999999574
13.975,0.094941,-0.054183,0.063998,-0.022293,idle,0,0.019999999999999574
13.995,0.010159,0.072568,0.128542,-0.00332,idle,0,0.019999999999999574
14.015,-0.025964,0.117456,-0.092919,0.020835,idle,0,0.02000000000000135
14.035,0.118323,-0.063321,-0.07606,0.004004,idle,0,0.019999999999999574
14.054,0.252189,-0.082641,0.056951,-0.013325,idle,0,0.019000000000000128
14.074,0.027692,0.014256,0.3333,-0.007809,idle,0,0.019999999999999574
14.094,-0.234888,0.279009,-0.023842,0.049554,idle,0,0.019999999999999574
14.114,0.224312,-0.126672,-0.305095,0.014309,idle,0,0.02000000000000135
14.134,0.331829,-0.076433,-0.036118,-0.003839,idle,0,0.019999999999999574
14.154,0.098167,-0.041315,0.246849,-0.011335,idle,0,0.019999999999999574
14.174,-0.368752,0.271816,0.156232,0.045295,idle,0,0.019999999999999574
14.194,0.174836,-0.096793,-0.310962,0.016878,idle,0,0.02000000000000135
14.214,0.29789,-0.019357,-0.047001,0.009631,idle,0,0.019999999999999574
14.235,0.121342,0.08934,0.098357,0.025573,idle,0,0.02099999999999902
14.253,-0.021404,-0.057625,0.072975,0.008933,idle,0,0.018000000000000682
14.273,-0.275541,0.00977,0.045849,0.0091,idle,0,0.019999999999999574
14.293,0.479702,0.066827,-0.063917,0.020646,idle,0,0.019999999999999574
14.313,0.165035,0.19684,0.101314,0.055885,idle,0,0.02000000000000135
14.333,-0.317381,-0.175117,0.008455,0.009684,idle,0,0.019999999999999574
14.353,0.107839,0.000719,-0.287339,0.007891,idle,0,0.019999999999999574
14.372,0.250824,0.101955,3.9e-05,0.026704,idle,0,0.019000000000000128
14.392,-0.058554,0.250131,0.114731,0.071389,idle,0,0.019999999999999574
14.412,-0.325509,-0.132653,0.102699,0.030581,idle,0,0.02000000000000135
14.432,0.334888,-0.002751,-0.262463,0.023915,idle,0,0.019999999999999574
14.452,-0.138241,-0.008499,0.049866,0.017432,idle,0,0.019999999999999574
14.472,0.03548,0.014721,0.000568,0.01689,idle,0,0.019999999999999574
14.491,-0.24531,-0.144012,-0.023169,-0.015291,idle,0,0.019000000000000128
14.512,0.263269,0.124994,-0.134522,0.012766,idle,0,0.021000000000000796
14.532,-0.038681,0.069497,0.185927,0.024112,idle,0,0.019999999999999574
14.551,-0.179646,-0.043341,0.203596,0.010622,idle,0,0.019000000000000128
14.571,-0.081429,-0.191428,-0.300464,-0.029788,idle,0,0.019999999999999574
14.591,0.293149,-0.034235,-0.204493,-0.030678,idle,0,0.019999999999999574
14.611,-0.27267,0.241234,0.165072,0.023705,idle,0,0.02000000000000135
14.631,-0.055586,-0.064883,0.167162,0.005987,idle,0,0.019999999999999574
14.651,-0.03894,-0.055227,-0.071127,-0.006256,idle,0,0.019999999999999574
14.67,0.112276,-0.064667,-0.185611,-0.017938,idle,0,0.019000000000000128
14.69,-0.145177,0.127458,0.005817,0.011141,idle,0,0.019999999999999574
14.71,-0.094811,-0.111528,0.145653,-0.013393,idle,0,0.02000000000000135
14.73,0.014967,0.050199,0.079545,-0.000674,idle,0,0.019999999999999574
14.75,0.04864,0.14108,0.109973,0.027677,idle,0,0.019999999999999574
14.77,-0.29223,-0.126267,-0.258469,-0.003112,idle,0,0.019999999999999574
14.79,0.094655,-0.130402,-0.153531,-0.02857,idle,0,0.019999999999999574
14.81,-0.016224,0.083918,0.103334,-0.006073,idle,0,0.02000000000000135
14.831,-0.143593,0.140536,0.262914,0.023249,idle,0,0.02099999999999902
14.849,-0.182791,-0.124038,-0.201512,-0.006208,idle,0,0.018000000000000682
14.869,0.081612,-0.061625,-0.260219,-0.017292,idle,0,0.019999999999999574
14.889,-0.075541,0.069025,0.063907,-2.8e-05,idle,0,0.019999999999999574
14.909,-0.264607,0.162875,0.236879,0.032552,idle,0,0.02000000000000135
14.929,-0.130269,-0.095158,-0.29269,0.00701,idle,0,0.019999999999999574
14.949,-0.010296,-0.121469,-0.291261,-0.018686,idle,0,0.019999999999999574
14.969,-0.163822,0.011824,0.008542,-0.012584,idle,0,0.019999999999999574
14.988,-0.285304,0.041269,0.156561,-0.001813,idle,0,0.019000000000000128
15.008,-0.095921,0.039491,-0.098099,0.006448,idle,0,0.019999999999999574
15.029,-0.033586,-0.126741,-0.224975,-0.02019,idle,0,0.021000000000000796
15.048,-0.127505,-0.026555,-0.076395,-0.021463,idle,0,0.019000000000000128
15.068,-0.247236,-0.006511,0.006244,-0.018473,idle,0,0.019999999999999574
15.088,-0.017966,0.060207,0.106331,-0.002737,idle,0,0.019999999999999574
15.108,0.046472,-0.055765,-0.132341,-0.013343,idle,0,0.02000000000000135
15.128,-0.081182,-0.01378,-0.00066,-0.01343,idle,0,0.019999999999999574
15.147,-0.154592,0.14576,0.13364,0.018408,idle,0,0.019000000000000128
15.167,-0.013106,-0.066774,-0.02003,0.001372,idle,0,0.019999999999999574
15.187,0.065217,-0.100513,-0.246617,-0.019005,idle,0,0.019999999999999574
15.207,-0.005923,0.022367,0.006651,-0.010731,idle,0,0.02000000000000135
15.227,-0.139404,0.047355,0.141647,0.000886,idle,0,0.019999999999999574
15.247,-0.030156,-0.075282,-0.101129,-0.014347,idle,0,0.019999999999999574
15.267,0.090325,-0.116454,-0.199642,-0.034769,idle,0,0.019999999999999574
15.286,-0.011413,0.08711,0.115088,-0.010393,idle,0,0.019000000000000128
15.306,-0.085689,-0.004545,0.10855,-0.009223,idle,0,0.019999999999999574
15.326,-0.050619,0.010296,-0.158248,-0.005319,idle,0,0.02000000000000135
15.346,0.12433,-0.122674,-0.131065,-0.02879,idle,0,0.019999999999999574
15.366,-0.041654,0.094153,0.148871,-0.004202,idle,0,0.019999999999999574
15.386,-0.084025,0.050867,0.202785,0.006812,idle,0,0.019999999999999574
15.406,-0.053737,-0.016915,-0.194432,0.002067,idle,0,0.02000000000000135
15.426,0.149472,-0.115367,-0.240017,-0.02142,idle,0,0.019999999999999574
15.446,-0.054457,0.135518,0.229467,0.009968,idle,0,0.019999999999999574
15.466,-0.087859,-0.006048,0.150385,0.006764,idle,0,0.019999999999999574
15.485,-0.000804,0.037294,-0.150775,0.01287,idle,0,0.019000000000000128
15.505,0.100441,-0.144565,-0.162278,-0.018617,idle,0,0.02000000000000135
15.525,-0.057348,0.212279,0.251086,0.027562,idle,0,0.019999999999999574
15.545,-0.090607,-0.016431,0.080158,0.018764,idle,0,0.019999999999999574
15.565,0.018231,-0.020868,-0.150691,0.010837,idle,0,0.019999999999999574
15.584,0.054087,-0.067362,-0.114929,-0.004802,idle,0,0.019000000000000128
15.604,-0.083186,0.161946,0.242378,0.028547,idle,0,0.019999999999999574
15.625,-0.041034,0.003432,0.024633,0.023524,idle,0,0.021000000000000796
15.644,-0.009792,-0.046196,-0.195442,0.00958,idle,0,0.019000000000000128
15.664,0.054866,-0.021675,-0.07818,0.003329,idle,0,0.019999999999999574
15.684,-0.070403,0.160592,0.31025,0.034782,idle,0,0.019999999999999574
15.704,-0.097597,-0.054361,-0.081087,0.016953,idle,0,0.02000000000000135
15.724,0.036174,-0.029569,-0.156556,0.007649,idle,0,0.019999999999999574
15.744,0.024807,-0.014441,0.082025,0.003231,idle,0,0.019999999999999574
15.763,-0.097436,0.153129,0.240891,0.03321,idle,0,0.019000000000000128
15.783,-0.039123,-0.032586,-0.062425,0.020051,idle,0,0.019999999999999574
15.803,0.074887,-0.059734,-0.238982,0.004094,idle,0,0.02000000000000135
15.823,0.003378,0.019471,0.110896,0.00717,idle,0,0.019999999999999574
15.843,-0.04242,0.054336,0.141571,0.016603,idle,0,0.019999999999999574
15.863,-0.074564,0.037993,0.004306,0.020881,idle,0,0.019999999999999574
15.883,0.091254,-0.039739,-0.108245,0.008757,idle,0,0.019999999999999574
15.902,0.075951,-0.06682,0.01745,-0.006358,idle,0,0.019000000000000128
15.925,-0.075451,0.059593,0.093129,0.006832,idle,0,0.023000000000001464
15.942,-0.004465,-0.001705,-0.005716,0.005125,idle,0,0.01699999999999946
15.962,0.065763,0.006162,-0.013748,0.005332,idle,0,0.019999999999999574
15.982,0.146272,-0.005787,0.029883,0.003108,idle,0,0.019999999999999574
16.002,-0.06553,-0.029004,-0.010948,-0.003314,idle,0,0.019999999999999574
16.022,0.062433,0.025272,-0.056871,0.002403,idle,0,0.019999999999999574
16.042,0.113143,0.007297,0.055209,0.003382,idle,0,0.020000000000003126
16.062,0.091741,0.001145,0.091957,0.002935,idle,0,0.019999999999999574
16.081,0.059554,0.024522,0.018702,0.007252,idle,0,0.01899999999999835
16.101,0.064791,-0.134924,-0.027107,-0.021183,idle,0,0.019999999999999574
16.121,0.055774,0.041752,0.023443,-0.008596,idle,0,0.019999999999999574
16.141,0.163159,-0.028727,0.152413,-0.012622,idle,0,0.019999999999999574
16.161,0.188151,-0.16482,0.040671,-0.043062,idle,0,0.020000000000003126
16.181,0.039106,0.023346,-0.11834,-0.02978,idle,0,0.019999999999999574
16.201,-0.005722,0.058352,0.037199,-0.012154,idle,0,0.019999999999999574
16.221,0.146833,-0.020621,0.134104,-0.013847,idle,0,0.019999999999999574
16.24,0.080278,-0.119701,0.065641,-0.035018,idle,0,0.01899999999999835
16.26,0.075621,-0.120716,0.036174,-0.052158,idle,0,0.020000000000003126
16.28,-0.048976,0.15176,0.091975,-0.011374,idle,0,0.019999999999999574
16.3,0.017555,0.074227,-0.050472,0.005746,idle,0,0.019999999999999574
16.32,0.090086,-0.057093,0.017578,-0.006822,idle,0,0.019999999999999574
16.34,0.026919,-0.251373,0.095662,-0.055732,idle,0,0.019999999999999574
16.359,-0.019544,0.149044,0.105807,-0.014777,idle,0,0.019000000000001904
16.379,-0.070351,0.214045,-0.068962,0.030988,idle,0,0.019999999999999574
16.399,0.044607,-0.027876,-0.101059,0.019215,idle,0,0.019999999999999574
16.42,0.042996,-0.199851,0.0466,-0.024598,idle,0,0.021000000000000796
16.439,0.020707,-0.023262,0.211022,-0.024331,idle,0,0.01899999999999835
16.459,-0.141213,0.294646,-0.057025,0.039464,idle,0,0.019999999999999574
16.479,-0.049625,0.015843,-0.147631,0.03474,idle,0,0.019999999999999574
16.499,0.098654,-0.159332,0.055787,-0.004074,idle,0,0.019999999999999574
16.519,-0.002773,-0.095026,0.205686,-0.022265,idle,0,0.019999999999999574
16.539,-0.056702,0.241393,0.042452,0.030467,idle,0,0.020000000000003126
16.558,-0.037641,0.007316,-0.231351,0.025837,idle,0,0.01899999999999835
16.578,0.043112,-0.06517,0.0427,0.007635,idle,0,0.019999999999999574
16.598,0.081787,-0.076891,0.164058,-0.00927,idle,0,0.019999999999999574
16.618,-0.000455,0.054294,0.126562,0.003443,idle,0,0.019999999999999574
16.638,-0.058634,0.10491,-0.150404,0.023736,idle,0,0.020000000000003126
16.658,0.028376,-0.059491,-0.061764,0.007091,idle,0,0.019999999999999574
16.677,0.12029,-0.073798,0.14207,-0.009087,idle,0,0.01899999999999835
16.697,0.039162,-0.008974,0.084066,-0.009064,idle,0,0.019999999999999574
16.717,-0.02106,0.119985,-0.051391,0.016745,idle,0,0.019999999999999574
16.737,-0.003097,-0.046887,-0.093309,0.004019,idle,0,0.019999999999999574
16.757,0.097951,0.00973,0.10241,0.005161,idle,0,0.020000000000003126
16.777,0.066073,-0.011896,0.059039,0.00175,idle,0,0.019999999999999574
16.797,0.036059,0.007912,-0.025678,0.002982,idle,0,0.019999999999999574
16.817,-0.097612,0.081341,-0.069335,0.018654,idle,0,0.019999999999999574
16.836,0.077831,-0.005513,-0.013912,0.013821,idle,0,0.01899999999999835
16.856,0.144349,-0.047089,0.033782,0.001639,idle,0,0.020000000000003126
16.876,-0.048058,-0.016991,0.063964,-0.002087,idle,0,0.019999999999999574
16.896,-0.123429,0.076002,0.013005,0.013531,idle,0,0.019999999999999574
16.916,0.025544,0.112418,0.050649,0.033308,idle,0,0.019999999999999574
16.936,0.149211,-0.056512,-0.027708,0.015344,idle,0,0.019999999999999574
16.956,0.138932,-0.147703,0.027013,-0.017265,idle,0,0.019999999999999574
16.975,-0.007178,0.032205,-0.014118,-0.007371,idle,0,0.019000000000001904
16.995,-0.093154,0.090229,0.020483,0.012149,idle,0,0.019999999999999574
17.015,0.109726,0.027515,0.086409,0.015222,idle,0,0.019999999999999574
17.035,0.225396,-0.067309,0.052074,-0.001284,idle,0,0.019999999999999574
17.055,0.014828,-0.006396,0.020354,-0.002307,idle,0,0.019999999999999574
17.075,0.064056,0.063154,-0.036349,0.010785,idle,0,0.019999999999999574
17.095,-0.017059,-0.021259,-0.040942,0.004376,idle,0,0.019999999999999574
17.115,0.08118,-0.006247,-0.021916,0.002252,idle,0,0.019999999999999574
17.135,0.225982,0.003519,0.171078,0.002505,idle,0,0.020000000000003126
17.154,0.010654,0.109588,0.129924,0.023922,idle,0,0.01899999999999835
17.174,-0.232156,-0.062233,0.124291,0.006691,idle,0,0.019999999999999574
17.194,0.156024,0.088558,-0.189343,0.023064,idle,0,0.019999999999999574
17.214,0.230372,-0.01554,0.055617,0.015343,idle,0,0.019999999999999574
17.234,0.031799,0.098318,0.046717,0.031938,idle,0,0.020000000000003126
17.254,-0.173182,-0.25527,0.044775,-0.025504,idle,0,0.019999999999999574
17.274,0.163913,0.105081,-0.100264,0.000613,idle,0,0.019999999999999574
17.294,0.047608,0.202061,0.142508,0.040903,idle,0,0.019999999999999574
17.314,0.031019,0.121014,0.022028,0.056925,idle,0,0.019999999999999574
17.333,-0.053208,-0.214224,0.101562,0.002695,idle,0,0.01899999999999835
17.353,0.211557,-0.023256,-0.229676,-0.002495,idle,0,0.020000000000003126
17.373,-0.015563,0.07381,0.045268,0.012766,idle,0,0.019999999999999574
17.393,0.047676,0.109406,0.049289,0.032094,idle,0,0.019999999999999574
17.413,-0.18013,-0.319778,0.109779,-0.03828,idle,0,0.019999999999999574
17.433,0.327264,0.205674,-0.161789,0.010511,idle,0,0.019999999999999574
17.452,-0.105893,0.053666,0.265677,0.019142,idle,0,0.019000000000001904
17.472,-0.085976,0.044074,-0.190018,0.024128,idle,0,0.019999999999999574
17.492,-0.037039,-0.296015,-0.141739,-0.0399,idle,0,0.019999999999999574
17.512,0.151631,0.127737,-0.131563,-0.006373,idle,0,0.019999999999999574
17.532,-0.075631,0.114262,0.195375,0.017754,idle,0,0.019999999999999574
17.552,-0.15885,0.004392,0.217912,0.015081,idle,0,0.019999999999999574
17.572,0.055295,-0.01805,-0.20147,0.008455,idle,0,0.019999999999999574
17.592,0.086818,0.021601,-0.050549,0.011084,idle,0,0.019999999999999574
17.611,-0.068951,0.199435,0.008057,0.048754,idle,0,0.019000000000001904
17.632,-0.05998,-0.020926,0.138329,0.034818,idle,0,0.021000000000000796
17.651,0.014624,-0.150986,-0.173085,-0.002343,idle,0,0.01899999999999835
17.671,0.161386,0.069653,-0.02054,0.012056,idle,0,0.019999999999999574
17.691,-0.175147,0.226226,0.126446,0.05489,idle,0,0.019999999999999574
17.711,-0.048617,-0.108277,-0.031069,0.022257,idle,0,0.019999999999999574
17.731,0.012255,-0.171621,-0.139338,-0.016519,idle,0,0.020000000000003126
17.75,0.094206,0.103044,-0.033954,0.007394,idle,0,0.01899999999999835
17.77,-0.14095,0.216156,0.185604,0.049146,idle,0,0.019999999999999574
17.79,-0.051865,-0.136122,-0.004604,0.012093,idle,0,0.019999999999999574
17.81,-0.061771,-0.075407,-0.128294,-0.005407,idle,0,0.019999999999999574
17.83,0.033887,-0.026678,-0.229121,-0.009661,idle,0,0.019999999999999574
17.85,-0.139153,0.013098,-0.028067,-0.005109,idle,0,0.020000000000003126
17.87,-0.174811,-0.103413,-0.014471,-0.02477,idle,0,0.019999999999999574
17.89,-0.127388,0.100866,0.138299,0.000357,idle,0,0.019999999999999574
17.91,-0.108211,0.336194,0.307834,0.067524,idle,0,0.019999999999999574
17.929,-0.236861,-0.223433,-0.119461,0.009333,idle,0,0.01899999999999835
17.949,-0.197266,-0.166379,-0.231044,-0.025809,idle,0,0.020000000000003126
17.969,-0.038272,-0.065497,-0.412827,-0.033747,idle,0,0.019999999999999574
17.989,-0.181693,-0.183291,-0.156097,-0.063656,idle,0,0.019999999999999574
18.009,-0.170027,0.048104,0.090404,-0.041304,idle,0,0.019999999999999574
18.029,-0.127344,0.234306,0.33578,0.013818,idle,0,0.019999999999999574
18.049,-0.093957,0.173148,0.197419,0.045684,idle,0,0.019999999999999574
18.068,-0.03748,-0.100519,-0.271118,0.016444,idle,0,0.019000000000001904
18.089,-0.112849,-0.22706,-0.235219,-0.032257,idle,0,0.020999999999997243
18.108,-0.055318,0.05523,0.076334,-0.01476,idle,0,0.019000000000001904
18.128,-0.040003,0.001983,-0.055219,-0.011411,idle,0,0.019999999999999574
18.148,-0.055276,-0.006666,-0.163428,-0.010462,idle,0,0.019999999999999574
18.168,-0.083932,0.012222,0.150051,-0.005925,idle,0,0.019999999999999574
18.188,0.035643,-0.010682,0.151895,-0.006877,idle,0,0.019999999999999574
18.208,-0.023971,0.042306,-0.079974,0.00296,idle,0,0.019999999999999574
18.231,0.008353,0.106706,-0.231642,0.023709,idle,0,0.02300000000000324
18.248,-0.071308,-0.136487,0.039342,-0.00833,idle,0,0.01699999999999946
18.267,0.00503,0.004719,0.160334,-0.00572,idle,0,0.01899999999999835
18.287,-0.002122,0.040613,-0.128844,0.003546,idle,0,0.019999999999999574
18.307,0.008457,-0.030593,-0.115052,-0.003282,idle,0,0.019999999999999574
18.327,-0.015486,0.082811,0.163283,0.013937,idle,0,0.020000000000003126
18.347,0.018558,0.0501,0.184939,0.02117,idle,0,0.019999999999999574
18.367,-0.038399,-0.00582,-0.121974,0.015772,idle,0,0.019999999999999574
18.386,0.058785,-0.018225,-0.131552,0.008972,idle,0,0.01899999999999835
18.406,-0.039299,0.027194,0.065427,0.012617,idle,0,0.019999999999999574
18.426,-0.050571,-0.057691,-0.01465,-0.001445,idle,0,0.019999999999999574
18.446,0.010029,-0.027146,-0.044738,-0.006585,idle,0,0.020000000000003126
18.466,0.030836,0.006443,-0.012893,-0.00398,idle,0,0.019999999999999574
18.486,-0.031697,0.002378,0.029123,-0.002708,idle,0,0.019999999999999574
18.506,-0.058838,0.000604,-0.093081,-0.002046,idle,0,0.019999999999999574
18.526,0.041085,-0.040655,-0.011417,-0.009768,idle,0,0.019999999999999574
18.545,0.089547,0.123244,-0.004697,0.016835,idle,0,0.019000000000001904
18.565,-0.144375,-0.056688,0.112768,0.00213,idle,0,0.019999999999999574
18.585,-0.033178,0.024606,-0.167228,0.006625,idle,0,0.019999999999999574
18.605,0.071732,-0.060091,-0.066014,-0.006718,idle,0,0.019999999999999574
18.625,0.014218,0.151859,0.157843,0.024997,idle,0,0.019999999999999574
18.645,-0.164276,-0.010952,-0.006634,0.017807,idle,0,0.019999999999999574
18.665,-0.028504,-0.075361,-0.247555,-0.000826,idle,0,0.019999999999999574
18.685,0.119235,-0.032849,-0.059816,-0.007231,idle,0,0.019999999999999574
18.704,-0.061839,0.108573,0.258475,0.01593,idle,0,0.019000000000001904
18.724,-0.121277,0.05871,0.007426,0.024486,idle,0,0.019999999999999574
18.744,0.03726,-0.012755,-0.205671,0.017038,idle,0,0.019999999999999574
18.764,0.02136,-0.054007,-0.031219,0.002829,idle,0,0.019999999999999574
18.784,-0.01401,0.089416,0.225609,0.020146,idle,0,0.019999999999999574
18.804,-0.162307,0.074193,0.052041,0.030956,idle,0,0.019999999999999574
18.825,0.041744,-0.066353,-0.215562,0.011494,idle,0,0.021000000000000796
18.843,0.06088,-0.052679,-0.119552,-0.001341,idle,0,0.018000000000000682
18.863,-0.043391,0.097491,0.282796,0.018426,idle,0,0.019999999999999574
18.883,-0.149263,-0.00283,0.013886,0.014175,idle,0,0.019999999999999574
18.903,0.073622,-0.062004,-0.14089,-0.001061,idle,0,0.019999999999999574
18.923,0.096239,-0.012457,-0.03984,-0.00334,idle,0,0.019999999999999574
18.943,-0.072764,0.080353,0.200457,0.013398,idle,0,0.020000000000003126
18.963,-0.139243,-0.010934,-0.060691,0.008532,idle,0,0.019999999999999574
18.982,0.084952,-0.123931,-0.211534,-0.017961,idle,0,0.01899999999999835
19.003,0.033229,0.003446,0.127356,-0.013679,idle,0,0.021000000000000796
19.023,0.018871,0.130492,0.27461,0.015155,idle,0,0.019999999999999574
19.042,-0.149676,-0.035536,-0.182444,0.005017,idle,0,0.019000000000001904
19.062,0.060012,-0.113317,-0.203639,-0.01865,idle,0,0.019999999999999574
19.082,0.091389,-0.038749,0.083629,-0.02267,idle,0,0.019999999999999574
19.102,-0.012442,0.092209,0.309699,0.000306,idle,0,0.019999999999999574
19.122,-0.06497,0.010305,-0.209921,0.002306,idle,0,0.019999999999999574
19.142,0.050488,-0.11156,-0.096273,-0.020467,idle,0,0.019999999999999574
19.161,0.117396,-0.056273,0.103989,-0.027629,idle,0,0.019000000000001904
19.181,0.057802,0.052742,0.113597,-0.011554,idle,0,0.019999999999999574
19.201,-0.076542,0.064998,-0.026516,0.003756,idle,0,0.019999999999999574
19.221,0.080981,-0.123907,-0.030027,-0.021777,idle,0,0.019999999999999574
19.241,0.21407,0.016063,0.189598,-0.014209,idle,0,0.019999999999999574
19.261,0.072518,-0.01099,-0.005844,-0.013565,idle,0,0.019999999999999574
19.281,0.110677,-0.033464,-0.092425,-0.017545,idle,0,0.019999999999999574
19.3,0.129661,-0.060929,0.037024,-0.026221,idle,0,0.019000000000001904
19.321,0.150254,-0.035253,0.242666,-0.028028,idle,0,0.021000000000000796
19.34,0.13299,-0.164933,0.092175,-0.055409,idle,0,0.01899999999999835
19.36,0.139525,-0.000311,-0.069997,-0.044389,idle,0,0.019999999999999574
19.38,0.011993,-0.001247,0.106191,-0.035761,idle,0,0.019999999999999574
19.4,0.039386,-0.06471,0.10663,-0.041551,idle,0,0.019999999999999574
19.42,0.099451,-0.051809,0.042023,-0.043602,idle,0,0.020000000000003126
19.44,0.091535,0.014063,0.058868,-0.032069,idle,0,0.019999999999999574
19.459,-0.067066,0.112976,0.126342,-0.00306,idle,0,0.01899999999999835
19.479,0.004131,0.058666,-0.089192,0.009285,idle,0,0.019999999999999574
19.499,0.053088,-0.033265,0.002136,0.000775,idle,0,0.019999999999999574
19.519,-0.00607,-0.062036,0.103157,-0.011787,idle,0,0.019999999999999574
19.539,-0.068889,0.135525,0.135223,0.017675,idle,0,0.020000000000003126
19.559,-0.039551,0.098856,-0.227516,0.033911,idle,0,0.019999999999999574
19.579,0.032593,-0.079929,-0.055568,0.011143,idle,0,0.019999999999999574
19.599,0.03262,-0.122159,0.115983,-0.015517,idle,0,0.019999999999999574
19.62,-0.054076,0.110355,0.248769,0.009657,idle,0,0.021000000000000796
19.638,-0.047699,0.137332,-0.160293,0.035192,idle,0,0.018000000000000682
19.659,0.002469,-0.065816,-0.092655,0.014991,idle,0,0.020999999999997243
19.678,0.087862,-0.165683,0.08544,-0.021144,idle,0,0.019000000000001904
19.698,-0.050742,-0.033333,0.176609,-0.023582,idle,0,0.019999999999999574
19.718,-0.036229,0.174178,-0.020137,0.01597,idle,0,0.019999999999999574
19.738,-0.05391,0.033227,-0.159331,0.019421,idle,0,0.019999999999999574
19.758,0.081824,-0.117909,-0.002156,-0.008045,idle,0,0.019999999999999574
19.777,-0.021763,-0.013331,0.137363,-0.009102,idle,0,0.019000000000001904
19.797,0.006215,0.080576,0.060303,0.008834,idle,0,0.019999999999999574
19.817,-0.019686,0.078296,-0.09107,0.022726,idle,0,0.019999999999999574
19.837,0.039512,-0.060952,-0.056041,0.00599,idle,0,0.019999999999999574
19.857,0.00821,-0.046987,0.084704,-0.004605,idle,0,0.019999999999999574
19.877,0.020119,0.025524,0.132001,0.001421,idle,0,0.019999999999999574
19.897,0.012096,0.072823,-0.020162,0.015701,idle,0,0.019999999999999574
19.918,-0.003285,0.014817,-0.082489,0.015525,idle,0,0.021000000000000796
19.936,0.044466,-0.012952,0.033583,0.009829,idle,0,0.018000000000000682
19.956,0.083502,-0.057001,0.057777,-0.003537,idle,0,0.019999999999999574
19.976,0.013037,-0.008268,0.087914,-0.004483,idle,0,0.019999999999999574
19.996,-0.011846,0.073002,-0.011402,0.011014,idle,0,0.019999999999999574
20.016,-0.006176,0.082714,-0.025802,0.025354,idle,0,0.019999999999999574
20.036,0.092278,-0.038287,-0.018375,0.012626,idle,0,0.020000000000003126
20.055,0.088923,-0.095297,-0.008096,-0.008959,idle,0,0.01899999999999835
20.075,0.005116,-0.017404,0.013176,-0.010648,idle,0,0.019999999999999574
20.095,-0.076696,0.10916,0.085386,0.013314,idle,0,0.019999999999999574
20.115,0.057205,0.059995,-6.1e-05,0.02265,idle,0,0.019999999999999574
20.135,0.088756,-0.079215,0.023647,0.002277,idle,0,0.020000000000003126
20.155,0.09154,-0.063889,0.018523,-0.010956,idle,0,0.019999999999999574
20.175,0.13959,0.013987,0.0751,-0.005967,idle,0,0.019999999999999574
20.195,-0.226726,0.191628,0.030144,0.033552,idle,0,0.019999999999999574
20.215,0.131311,-0.138158,-0.240806,-0.00079,idle,0,0.019999999999999574
20.234,0.23337,-0.142667,0.123948,-0.029166,idle,0,0.019000000000001904
20.254,0.082024,0.082952,0.117883,-0.006742,idle,0,0.019999999999999574
20.274,-0.005997,-0.040717,0.107819,-0.013537,idle,0,0.019999999999999574
20.294,-0.061534,0.077094,-0.119518,0.004589,idle,0,0.019999999999999574
20.314,0.182764,-0.072399,-0.027512,-0.010809,idle,0,0.019999999999999574
20.334,0.236208,0.013508,-0.00597,-0.005945,idle,0,0.019999999999999574
20.354,0.00189,0.046529,0.200451,0.00455,idle,0,0.019999999999999574
20.374,-0.123718,-0.003377,-0.005508,0.002964,idle,0,0.019999999999999574
20.393,0.251592,0.048992,-0.060934,0.01217,idle,0,0.019000000000001904
20.413,0.159064,0.185369,-0.016665,0.04681,idle,0,0.019999999999999574
20.433,-0.17933,-0.201691,-0.068199,-0.00289,idle,0,0.019999999999999574
20.453,0.153614,-0.074042,-0.13199,-0.017121,idle,0,0.019999999999999574
20.473,0.093193,0.099341,0.109351,0.006172,idle,0,0.019999999999999574
20.493,-0.051398,0.311286,0.063154,0.067194,idle,0,0.019999999999999574
20.513,-0.136696,-0.163052,0.090729,0.021145,idle,0,0.020000000000003126
20.533,0.100972,-0.007196,-0.173313,0.015477,idle,0,0.019999999999999574
20.552,0.071475,0.065965,0.115376,0.025575,idle,0,0.01899999999999835
20.572,-0.129198,0.18057,0.104933,0.056574,idle,0,0.019999999999999574
20.592,-0.105537,-0.204175,-0.070999,0.004424,idle,0,0.019999999999999574
20.612,0.212165,-0.0567,-0.170792,-0.007801,idle,0,0.019999999999999574
20.632,0.151446,0.200161,0.241968,0.033792,idle,0,0.020000000000003126
20.653,-0.353407,0.179369,0.203422,0.062907,idle,0,0.020999999999997243
20.672,0.125236,-0.204269,-0.036155,0.009472,idle,0,0.019000000000001904
20.692,0.072134,0.029601,-0.21525,0.013498,idle,0,0.019999999999999574
20.712,0.035782,0.133272,0.139369,0.037453,idle,0,0.019999999999999574
20.731,-0.197715,0.048037,0.070466,0.03957,idle,0,0.019000000000001904
20.751,0.06413,-0.222711,-0.133155,-0.012886,idle,0,0.019999999999999574
20.771,0.009682,0.064957,-0.195995,0.002682,idle,0,0.019999999999999574
20.791,0.025821,0.073429,0.038614,0.016832,idle,0,0.019999999999999574
20.811,-0.054602,0.059873,0.054373,0.02544,idle,0,0.019999999999999574
20.83,-0.095202,-0.087288,-0.013073,0.002894,idle,0,0.01899999999999835
20.85,0.008735,-0.041495,0.024432,-0.005983,idle,0,0.020000000000003126
20.87,-0.007013,0.227269,0.030625,0.040667,idle,0,0.019999999999999574
20.89,-0.069917,-0.190092,-0.14461,-0.005485,idle,0,0.019999999999999574
20.91,-0.024747,-0.116965,-0.256743,-0.027781,idle,0,0.019999999999999574
20.93,0.045299,-0.023068,-0.020646,-0.026838,idle,0,0.019999999999999574
20.95,-0.12877,0.365392,0.326257,0.051608,idle,0,0.019999999999999574
20.97,-0.171742,-0.028456,0.151398,0.035595,idle,0,0.019999999999999574
20.99,0.148054,-0.06906,-0.306185,0.014664,idle,0,0.019999999999999574
21.01,-0.096602,-0.157846,-0.121724,-0.019838,idle,0,0.020000000000003126
21.031,-0.141648,0.038853,0.034753,-0.0081,idle,0,0.020999999999997243
21.049,-0.069208,-0.017421,-0.136811,-0.009964,idle,0,0.018000000000000682
21.069,-0.096967,0.119974,0.114904,0.016024,idle,0,0.019999999999999574
21.089,-0.243034,0.032175,0.129098,0.019254,idle,0,0.019999999999999574
21.109,-0.098951,-0.08485,-0.093672,-0.001567,idle,0,0.020000000000003126
21.129,-0.100572,-0.060676,-0.118819,-0.013389,idle,0,0.019999999999999574
21.149,-0.163437,0.038803,-0.018859,-0.00295,idle,0,0.019999999999999574
21.168,-0.186657,-0.058105,-0.016894,-0.013981,idle,0,0.01899999999999835
21.188,-0.193877,-0.022418,0.06696,-0.015669,idle,0,0.019999999999999574
21.208,-0.094279,-0.04428,-0.045493,-0.021391,idle,0,0.019999999999999574
21.228,-0.097591,0.036538,-0.076987,-0.009805,idle,0,0.020000000000003126
21.248,-0.096081,0.123068,0.050506,0.01677,idle,0,0.019999999999999574
21.268,-0.105661,-0.024443,0.02992,0.008527,idle,0,0.019999999999999574
21.288,-0.099099,-0.106478,-0.00419,-0.014474,idle,0,0.019999999999999574
21.308,-0.008559,-0.032313,-0.180306,-0.018042,idle,0,0.019999999999999574
21.327,-0.038052,0.121116,-0.002465,0.00979,idle,0,0.019000000000001904
21.347,-0.090229,-0.041011,0.102707,-0.00037,idle,0,0.019999999999999574
21.367,-0.041002,-0.054446,0.043342,-0.011186,idle,0,0.019999999999999574
21.387,0.064583,-0.028203,-0.132177,-0.014589,idle,0,0.019999999999999574
21.407,-0.017545,0.052183,-0.078948,-0.001235,idle,0,0.019999999999999574
21.427,-0.043701,-0.068197,-0.036085,-0.014627,idle,0,0.019999999999999574
21.447,-0.017035,-0.001464,0.021746,-0.011995,idle,0,0.019999999999999574
21.466,0.084589,0.035354,0.136992,-0.002525,idle,0,0.019000000000001904
21.487,-0.014858,0.085126,-0.069276,0.015005,idle,0,0.020999999999997243
21.506,-0.089087,-0.017209,-0.118381,0.008562,idle,0,0.019000000000001904
21.526,0.09369,-0.034417,0.041137,-3.3e-05,idle,0,0.019999999999999574
21.546,-0.032048,-0.025807,0.060228,-0.005188,idle,0,0.019999999999999574
21.566,-0.028089,0.055657,-0.118801,0.006981,idle,0,0.019999999999999574
21.586,0.056255,-0.004408,-0.023833,0.004703,idle,0,0.019999999999999574
21.606,0.066459,-0.000213,-0.010312,0.00372,idle,0,0.020000000000003126
21.626,-0.045292,0.096922,0.265785,0.02236,idle,0,0.019999999999999574
21.645,0.018415,-2.1e-05,-0.182071,0.017884,idle,0,0.01899999999999835
21.665,0.035661,-0.037302,-0.077511,0.006847,idle,0,0.019999999999999574
21.685,-0.017129,0.016143,0.071229,0.008706,idle,0,0.019999999999999574
21.705,-0.063796,0.022436,0.217976,0.011452,idle,0,0.019999999999999574
21.725,0.043435,-0.010991,-0.242652,0.006963,idle,0,0.020000000000003126
21.745,0.05482,0.023159,-0.10441,0.010202,idle,0,0.019999999999999574
21.765,-0.095982,0.052829,0.207556,0.018728,idle,0,0.019999999999999574
21.784,-0.007936,-0.020719,0.065239,0.010838,idle,0,0.01899999999999835
21.804,0.017668,-0.039835,-0.219625,0.000704,idle,0,0.019999999999999574
21.824,0.040483,0.081961,-0.035883,0.016955,idle,0,0.020000000000003126
21.844,-0.079718,0.035904,0.174387,0.020745,idle,0,0.019999999999999574
21.864,-0.005274,0.005391,0.014751,0.017674,idle,0,0.019999999999999574
21.884,-0.024124,-0.033131,-0.095647,0.007513,idle,0,0.019999999999999574
21.904,0.03469,-0.012941,-0.09445,0.003422,idle,0,0.019999999999999574
21.924,-0.061121,0.009746,0.022016,0.004687,idle,0,0.019999999999999574
21.943,-0.077188,0.076295,0.104615,0.019009,idle,0,0.019000000000001904
21.963,0.013224,-0.025723,-0.084319,0.010062,idle,0,0.019999999999999574
21.983,0.007687,-0.033592,-0.031465,0.001331,idle,0,0.019999999999999574
22.003,-0.012243,0.135947,0.149257,0.028255,idle,0,0.019999999999999574
22.023,-0.090761,-0.011873,-0.052984,0.020229,idle,0,0.019999999999999574
22.043,0.008198,-0.063387,-0.117458,0.003506,idle,0,0.019999999999999574
22.062,0.015084,-0.005375,0.005623,0.00173,idle,0,0.019000000000001904
22.082,0.042976,0.030133,0.006583,0.00741,idle,0,0.019999999999999574
22.102,-0.13678,-0.022511,-0.063771,0.001426,idle,0,0.019999999999999574
22.125,0.011313,-0.051812,-0.055676,-0.009222,idle,0,0.022999999999999687
22.142,0.027038,-0.013253,0.095952,-0.010028,idle,0,0.01699999999999946
22.162,-0.026228,0.06746,0.051437,0.00547,idle,0,0.019999999999999574
22.182,-0.016344,-0.066931,-0.19307,-0.00901,idle,0,0.019999999999999574
22.202,-0.004085,-0.076718,-0.036797,-0.022552,idle,0,0.020000000000003126
22.222,0.101359,0.064414,0.174502,-0.005159,idle,0,0.019999999999999574
22.241,-0.120821,0.03144,0.026235,0.002161,idle,0,0.01899999999999835
22.262,0.087223,-0.078284,-0.156381,-0.013928,idle,0,0.021000000000000796
22.281,-0.001015,-0.053616,-0.074475,-0.021866,idle,0,0.01899999999999835
22.301,0.062881,0.066106,0.232705,-0.004271,idle,0,0.019999999999999574
22.321,-0.052574,-0.007054,-0.024734,-0.004828,idle,0,0.020000000000003126
22.341,0.073145,-0.046715,-0.065173,-0.013205,idle,0,0.019999999999999574
22.361,0.086319,0.000248,0.074106,-0.010515,idle,0,0.019999999999999574
22.381,0.033015,0.036068,0.192571,-0.001198,idle,0,0.019999999999999574
22.4,0.048073,-0.083622,-0.221595,-0.017683,idle,0,0.01899999999999835
22.421,0.043088,-0.046924,-0.022573,-0.023531,idle,0,0.021000000000000796
22.44,0.116855,0.032635,0.208165,-0.012298,idle,0,0.019000000000001904
22.46,0.132465,0.083501,0.228541,0.006862,idle,0,0.019999999999999574
22.48,0.070471,-0.236302,-0.173141,-0.041771,idle,0,0.019999999999999574
22.5,0.029358,0.066225,-0.116498,-0.020172,idle,0,0.019999999999999574
22.52,0.123941,-0.010852,0.141939,-0.018308,idle,0,0.019999999999999574
22.54,0.085868,-0.065521,0.324949,-0.02775,idle,0,0.019999999999999574
22.559,0.082082,-0.212684,-0.062764,-0.064737,idle,0,0.019000000000001904
22.579,0.079233,0.105978,-0.062121,-0.030594,idle,0,0.019999999999999574
22.599,0.028511,0.231675,0.137117,0.02186,idle,0,0.019999999999999574
22.62,0.07152,-0.151501,0.117496,-0.012812,idle,0,0.021000000000000796
22.639,0.058396,-0.035882,-0.047772,-0.017426,idle,0,0.01899999999999835
22.659,0.04782,0.076012,-0.098669,0.001261,idle,0,0.019999999999999574
22.679,0.068788,0.144364,0.162637,0.029882,idle,0,0.019999999999999574
22.698,-0.028775,0.078192,0.169249,0.039544,idle,0,0.019000000000001904
22.72,-0.008654,-0.09376,-0.040766,0.012883,idle,0,0.021999999999998465
22.738,0.001814,-0.023599,-0.020827,0.005587,idle,0,0.018000000000000682
22.758,0.029911,0.107539,0.025909,0.025977,idle,0,0.019999999999999574
22.778,-0.029861,0.104223,0.058782,0.041626,idle,0,0.019999999999999574
22.798,-0.094354,-0.106814,0.03981,0.011938,idle,0,0.019999999999999574
22.819,0.040224,-0.09999,0.006087,-0.010447,idle,0,0.021000000000000796
22.837,-0.002327,-0.045598,0.051188,-0.017478,idle,0,0.018000000000000682
22.858,-0.027293,0.160711,0.016216,0.01816,idle,0,0.021000000000000796
22.877,-0.04513,-0.023361,0.103664,0.009856,idle,0,0.01899999999999835
22.897,0.035032,-0.139955,-0.017291,-0.020106,idle,0,0.019999999999999574
22.917,0.019406,-0.09725,-0.007576,-0.035535,idle,0,0.020000000000003126
22.937,-0.041921,0.20165,0.091579,0.011902,idle,0,0.019999999999999574
22.957,-0.036648,0.068424,0.054242,0.023206,idle,0,0.019999999999999574
22.977,0.040674,-0.157713,-0.091986,-0.012978,idle,0,0.019999999999999574
22.997,0.045573,-0.062286,-0.037219,-0.022839,idle,0,0.019999999999999574
23.017,-0.040142,0.148553,0.053213,0.011439,idle,0,0.019999999999999574
23.037,-0.023792,0.060907,0.054226,0.021333,idle,0,0.019999999999999574
23.056,0.036954,0.0093,-0.066337,0.018926,idle,0,0.019000000000001904
23.076,0.026345,-0.071629,0.001436,0.000815,idle,0,0.019999999999999574
23.096,0.007966,0.02779,0.05791,0.00621,idle,0,0.019999999999999574
23.116,-0.042458,0.103303,-0.020509,0.025629,idle,0,0.019999999999999574
23.136,0.008738,0.028478,-0.115647,0.026199,idle,0,0.019999999999999574
23.156,0.04376,-0.046593,0.041789,0.01164,idle,0,0.019999999999999574
23.175,0.01906,-0.015133,0.082579,0.006285,idle,0,0.019000000000001904
23.195,-0.036264,0.062929,0.038325,0.017614,idle,0,0.019999999999999574
23.215,-0.039471,0.11016,-0.103921,0.036123,idle,0,0.019999999999999574
23.235,0.076107,-0.083542,-0.057148,0.01219,idle,0,0.019999999999999574
23.255,0.015054,-0.02672,0.100506,0.004408,idle,0,0.019999999999999574
23.275,-0.032167,0.003015,0.038369,0.00413,idle,0,0.019999999999999574
23.295,-0.031021,0.119364,-0.050975,0.027176,idle,0,0.020000000000003126
23.315,0.054184,-0.020492,0.033831,0.017643,idle,0,0.019999999999999574
23.334,0.051346,-0.035631,0.039903,0.006988,idle,0,0.01899999999999835
23.354,0.020064,0.014007,-0.00066,0.008392,idle,0,0.019999999999999574
23.374,-0.004598,0.044832,-0.071077,0.01568,idle,0,0.019999999999999574
23.394,0.030107,-0.019046,0.106282,0.008735,idle,0,0.019999999999999574
23.414,0.049584,0.011282,0.083423,0.009244,idle,0,0.020000000000003126
23.434,0.03823,-0.005389,-0.098624,0.006318,idle,0,0.019999999999999574
23.454,-0.034803,-0.002609,-0.088945,0.004532,idle,0,0.019999999999999574
23.474,0.041553,0.028083,0.092067,0.009242,idle,0,0.019999999999999574
23.493,0.053663,0.053542,0.086359,0.018102,idle,0,0.01899999999999835
23.514,0.029432,-0.051836,-0.034678,0.004115,idle,0,0.021000000000000796
23.533,0.01902,0.033864,-0.070024,0.010065,idle,0,0.019000000000001904
23.553,0.113604,-0.04299,0.089825,-0.000546,idle,0,0.019999999999999574
23.573,0.029118,0.103465,0.087356,0.020256,idle,0,0.019999999999999574
23.593,-0.099455,-0.070086,-0.044435,0.002187,idle,0,0.019999999999999574
23.613,0.169639,-0.115485,-0.131608,-0.021347,idle,0,0.019999999999999574
23.633,0.186457,0.14979,0.114142,0.01288,idle,0,0.019999999999999574
23.652,0.029418,0.060936,0.077119,0.022491,idle,0,0.019000000000001904
23.672,-0.148673,-0.063766,0.056274,0.00524,idle,0,0.019999999999999574
23.692,0.172403,0.001786,-0.135034,0.004549,idle,0,0.019999999999999574
23.712,0.198866,0.026404,0.010136,0.00892,idle,0,0.019999999999999574
23.732,0.190957,0.012397,0.055603,0.009615,idle,0,0.019999999999999574
23.752,-0.153745,-0.134474,0.113601,-0.019202,idle,0,0.019999999999999574
23.772,-0.011104,0.098309,-0.173305,0.0043,idle,0,0.019999999999999574
23.791,0.172459,0.02933,0.069413,0.009306,idle,0,0.019000000000001904
23.811,0.212127,0.030357,0.020142,0.013516,idle,0,0.019999999999999574
23.831,-0.013127,-0.136092,-0.029703,-0.016406,idle,0,0.019999999999999574
23.851,-0.02979,-0.071091,-0.012318,-0.027343,idle,0,0.019999999999999574
23.871,0.067408,0.224231,0.129948,0.022972,idle,0,0.019999999999999574
23.891,0.123936,0.191892,0.115002,0.056756,idle,0,0.019999999999999574
23.911,-0.071247,-0.376187,-0.254688,-0.029832,idle,0,0.020000000000003126
23.932,0.173877,-0.156597,-0.233873,-0.055185,idle,0,0.020999999999997243
23.951,-0.026083,0.22329,0.06632,0.00051,idle,0,0.019000000000001904
23.97,-0.040413,0.220823,0.346054,0.044572,idle,0,0.01899999999999835
23.99,0.021409,0.002992,-0.043986,0.036256,idle,0,0.019999999999999574
24.01,0.128928,-0.081531,-0.075405,0.012699,idle,0,0.020000000000003126
24.03,0.026717,0.071691,0.074474,0.024497,idle,0,0.019999999999999574
24.05,-0.198421,-0.083642,-0.061569,0.002869,idle,0,0.019999999999999574
24.07,-0.049973,-0.212861,-0.114039,-0.040277,idle,0,0.019999999999999574
24.09,0.206393,0.16377,-0.100244,0.000533,idle,0,0.019999999999999574
24.109,-0.106612,0.092655,0.234885,0.018957,idle,0,0.019000000000001904
24.13,-0.115451,0.07119,0.176698,0.029404,idle,0,0.020999999999997243
24.149,0.012229,-0.204907,-0.231025,-0.017458,idle,0,0.019000000000001904
24.169,0.106582,-0.011073,-0.255382,-0.016181,idle,0,0.019999999999999574
24.189,-0.111847,0.067723,0.040744,0.000599,idle,0,0.019999999999999574
24.209,-0.026656,-0.087775,0.157667,-0.017075,idle,0,0.019999999999999574
24.229,-0.123473,-0.017927,0.085801,-0.017246,idle,0,0.019999999999999574
24.249,0.128699,0.284382,0.061523,0.04308,idle,0,0.019999999999999574
24.268,-0.107898,0.031633,-0.027858,0.040791,idle,0,0.019000000000001904
24.288,0.077122,-0.227797,-0.242704,-0.012927,idle,0,0.019999999999999574
24.308,-0.114092,-0.135432,-0.106919,-0.037428,idle,0,0.019999999999999574
24.328,-0.130529,0.029152,0.058246,-0.024112,idle,0,0.019999999999999574
24.348,-0.030324,0.056044,-0.153865,-0.008081,idle,0,0.019999999999999574
24.368,-0.068056,-0.07167,-0.130336,-0.020799,idle,0,0.019999999999999574
24.388,0.008209,0.08226,0.017794,-0.000187,idle,0,0.020000000000003126
24.407,-0.167927,0.080241,0.227894,0.015899,idle,0,0.01899999999999835
24.427,-0.115178,-0.028327,-0.195646,0.007054,idle,0,0.019999999999999574
24.447,-0.032569,-0.089964,-0.220957,-0.01235,idle,0,0.019999999999999574
24.467,-0.15335,-0.111933,-0.019267,-0.032267,idle,0,0.019999999999999574
24.487,-0.257358,-0.000988,0.1022,-0.026011,idle,0,0.019999999999999574
24.507,-0.052606,0.219893,-0.022434,0.02317,idle,0,0.020000000000003126
24.527,-0.049572,-0.042157,-0.013047,0.010104,idle,0,0.019999999999999574
24.546,-0.215724,-0.140883,-0.083336,-0.020093,idle,0,0.01899999999999835
24.566,-0.185577,0.017606,-0.008479,-0.012553,idle,0,0.019999999999999574
24.586,-0.087951,0.083845,0.034581,0.006727,idle,0,0.019999999999999574
24.606,-0.042958,-0.012741,-0.18314,0.002833,idle,0,0.020000000000003126
24.626,-0.182847,-0.063266,0.022778,-0.010387,idle,0,0.019999999999999574
24.646,-0.190135,0.1191,0.23352,0.015511,idle,0,0.019999999999999574
24.666,-0.002477,-0.003831,-0.069001,0.011642,idle,0,0.019999999999999574
24.686,-0.034841,-0.13429,-0.236768,-0.017544,idle,0,0.019999999999999574
24.705,-0.150523,0.073706,0.092951,0.000706,idle,0,0.01899999999999835
24.726,-0.047875,0.05137,0.115278,0.010839,idle,0,0.021000000000000796
24.745,0.023893,-0.061457,-0.057568,-0.00362,idle,0,0.019000000000001904
24.765,0.057205,-0.125222,-0.119362,-0.027941,idle,0,0.019999999999999574
24.785,-0.041035,0.137669,0.126241,0.005181,idle,0,0.019999999999999574
24.805,-0.063132,0.139209,0.091865,0.031987,idle,0,0.019999999999999574
24.825,0.012033,0.009436,0.059837,0.027477,idle,0,0.019999999999999574
24.845,0.143082,-0.1928,-0.174912,-0.016579,idle,0,0.019999999999999574
24.865,-0.097428,0.08494,0.073663,0.003725,idle,0,0.019999999999999574
24.885,-0.023548,0.003502,-0.067881,0.00368,idle,0,0.020000000000003126
24.904,0.019789,-0.060151,-0.061626,-0.009086,idle,0,0.01899999999999835
24.924,0.091836,0.029863,-0.020799,-0.001296,idle,0,0.019999999999999574
24.944,-0.015001,0.010488,0.037624,0.001061,idle,0,0.019999999999999574
24.964,-0.03256,0.054382,0.010303,0.011725,idle,0,0.019999999999999574
24.984,-0.03997,-0.034072,-0.022382,0.002566,idle,0,0.020000000000003126
25.004,0.053543,-0.078794,0.008727,-0.013706,idle,0,0.019999999999999574
25.024,0.028484,0.084,0.041334,0.005835,idle,0,0.019999999999999574
25.043,-0.065443,0.03468,0.103759,0.011604,idle,0,0.01899999999999835
25.063,-0.035872,-0.017112,-0.10079,0.005861,idle,0,0.019999999999999574
25.083,0.060882,-0.126502,-0.1354,-0.020612,idle,0,0.019999999999999574
25.103,0.007174,0.065703,0.109356,-0.003349,idle,0,0.020000000000003126
25.123,-0.015249,0.066017,0.004895,0.010524,idle,0,0.019999999999999574
25.143,-0.099829,0.021618,0.044745,0.012743,idle,0,0.019999999999999574
25.162,0.054315,-0.077821,-0.046446,-0.00537,idle,0,0.01899999999999835
25.182,0.027671,-0.044588,-0.039546,-0.013213,idle,0,0.019999999999999574
25.202,-0.076754,0.065064,0.028197,0.002442,idle,0,0.020000000000003126
25.222,-0.07229,0.113533,0.056199,0.02466,idle,0,0.019999999999999574
25.242,0.036849,-0.074394,-0.027416,0.00485,idle,0,0.019999999999999574
25.262,0.026602,-0.003298,-0.003775,0.00322,idle,0,0.019999999999999574
25.282,-0.032374,0.161598,0.225782,0.034896,idle,0,0.019999999999999574
25.302,-0.038168,0.006474,0.047986,0.029211,idle,0,0.019999999999999574
25.321,0.020785,-0.012422,-0.060358,0.020885,idle,0,0.019000000000001904
25.342,0.003191,0.028367,0.049329,0.022381,idle,0,0.020999999999997243
25.361,-0.017807,-0.048286,-0.024121,0.008248,idle,0,0.019000000000001904
25.381,-0.044365,-0.00598,-0.037492,0.005402,idle,0,0.019999999999999574
25.401,0.041383,-0.07221,-0.093238,-0.01012,idle,0,0.019999999999999574
25.421,-0.08663,0.093802,-0.014045,0.010664,idle,0,0.019999999999999574
25.441,0.005558,0.108994,0.197191,0.03033,idle,0,0.019999999999999574
25.461,0.02812,-0.045847,-0.021896,0.015095,idle,0,0.019999999999999574
25.481,0.030262,-0.092849,-0.00747,-0.006494,idle,0,0.020000000000003126
25.501,-0.022185,-0.013403,-0.056948,-0.007876,idle,0,0.019999999999999574
25.52,-0.037641,0.040555,0.073299,0.00181,idle,0,0.01899999999999835
25.54,0.013139,0.008679,-0.083078,0.003184,idle,0,0.019999999999999574
25.56,0.014834,-0.05179,-0.007467,-0.007811,idle,0,0.019999999999999574
25.58,-0.004541,0.06217,0.122754,0.006185,idle,0,0.019999999999999574
25.6,0.05784,-0.036709,-0.0189,-0.002393,idle,0,0.020000000000003126
25.621,0.030083,-0.037043,-0.08827,-0.009323,idle,0,0.020999999999997243
25.64,0.000555,-0.005954,0.09259,-0.008649,idle,0,0.019000000000001904
25.659,0.000402,0.023718,0.084509,-0.002176,idle,0,0.01899999999999835
25.68,0.031644,0.006193,-0.072676,-0.000502,idle,0,0.021000000000000796
25.699,0.017801,-0.015648,-0.095112,-0.003531,idle,0,0.019000000000001904
25.719,0.014283,0.013578,0.161523,-0.00011,idle,0,0.019999999999999574
25.739,0.015339,0.059601,0.068067,0.011832,idle,0,0.019999999999999574
25.759,-0.005192,-0.041925,-0.124336,0.001081,idle,0,0.019999999999999574
25.779,0.135558,-0.065028,-0.053607,-0.012141,idle,0,0.019999999999999574
25.798,0.00214,0.041756,0.211894,-0.001361,idle,0,0.01899999999999835
25.818,-0.032675,0.028119,-0.074465,0.004535,idle,0,0.020000000000003126
25.838,0.045759,-0.065477,-0.101083,-0.009468,idle,0,0.019999999999999574
25.858,0.126421,-0.021593,0.098115,-0.011893,idle,0,0.019999999999999574
25.878,0.067479,-0.010246,0.250444,-0.011563,idle,0,0.019999999999999574
25.898,-0.019602,0.123516,-0.026516,0.015453,idle,0,0.019999999999999574
25.918,0.072744,-0.005464,-0.081034,0.011269,idle,0,0.019999999999999574
25.937,0.115284,-0.123324,-0.077208,-0.015649,idle,0,0.019000000000001904
25.957,0.100409,-0.135357,0.196222,-0.039591,idle,0,0.019999999999999574
25.977,0.01503,0.109555,0.118492,-0.009762,idle,0,0.019999999999999574
25.997,-0.025881,0.166023,-0.039267,0.025395,idle,0,0.019999999999999574
26.017,0.08703,-0.06022,-0.00796,0.008272,idle,0,0.019999999999999574
26.037,0.094343,-0.222648,-0.061258,-0.037912,idle,0,0.019999999999999574
26.057,0.043462,-0.043717,0.029174,-0.039073,idle,0,0.019999999999999574
26.077,-0.041898,0.274005,0.086332,0.023543,idle,0,0.020000000000003126
26.097,0.015128,0.015738,-0.009871,0.021982,idle,0,0.019999999999999574
26.117,0.066306,-0.106013,0.026949,-0.003617,idle,0,0.019999999999999574
26.136,0.025838,-0.071053,-0.067434,-0.017104,idle,0,0.01899999999999835
26.156,-0.028983,0.07374,-0.0614,0.001065,idle,0,0.019999999999999574
26.176,-0.011767,0.041903,0.048313,0.009232,idle,0,0.019999999999999574
26.196,0.069969,-0.059773,0.044701,-0.004569,idle,0,0.020000000000003126
26.216,0.02547,-0.054463,-0.087691,-0.014548,idle,0,0.019999999999999574
26.236,-0.022065,0.021888,-0.048699,-0.00726,idle,0,0.019999999999999574
26.255,-0.03177,0.039491,0.028076,0.00209,idle,0,0.01899999999999835
26.275,0.009986,0.024254,0.074789,0.006523,idle,0,0.019999999999999574
26.295,-0.005676,-0.015856,-0.073241,0.002047,idle,0,0.020000000000003126
26.315,-0.001718,-0.054502,-0.103612,-0.009263,idle,0,0.019999999999999574
26.335,-0.029252,0.015291,0.117966,-0.004352,idle,0,0.019999999999999574
26.355,0.01482,-0.011094,0.053743,-0.0057,idle,0,0.019999999999999574
26.375,-0.026594,0.076943,-0.031562,0.010828,idle,0,0.019999999999999574
26.395,0.007058,-0.022986,-0.171854,0.004065,idle,0,0.019999999999999574
26.415,0.022538,-0.045066,0.055615,-0.005761,idle,0,0.019999999999999574
26.435,0.034021,-0.032219,0.138109,-0.011053,idle,0,0.019999999999999574
26.454,-0.023557,0.053308,0.052672,0.00182,idle,0,0.019000000000001904
26.474,-0.0124,0.087287,-0.06714,0.018913,idle,0,0.019999999999999574
26.494,0.02929,-0.054556,-0.008838,0.004219,idle,0,0.019999999999999574
26.514,0.054659,-0.063601,0.059929,-0.009345,idle,0,0.019999999999999574
26.534,0.003456,0.009346,0.073352,-0.005607,idle,0,0.019999999999999574
26.554,-0.034956,0.140039,-0.029952,0.023523,idle,0,0.019999999999999574
26.574,0.013425,-0.009636,-0.041204,0.016891,idle,0,0.020000000000003126
26.593,0.058297,-0.060457,0.033335,0.001421,idle,0,0.01899999999999835
26.613,0.018969,-0.013317,0.011946,-0.001526,idle,0,0.019999999999999574
26.633,-0.048767,0.091506,0.028344,0.01708,idle,0,0.019999999999999574
26.653,-0.028755,0.044085,0.00849,0.022481,idle,0,0.019999999999999574
26.673,0.06641,-0.0566,-0.005016,0.006665,idle,0,0.019999999999999574
26.693,0.010709,-0.02047,0.060992,0.001238,idle,0,0.020000000000003126
26.713,-0.026824,0.074678,0.009287,0.015926,idle,0,0.019999999999999574
26.732,-0.030297,0.033813,-0.041439,0.019503,idle,0,0.01899999999999835
26.752,0.065332,-0.045409,0.04906,0.006521,idle,0,0.019999999999999574
26.772,0.051146,-0.018376,0.05966,0.001542,idle,0,0.019999999999999574
26.792,-0.010922,0.049317,0.008767,0.011097,idle,0,0.020000000000003126
26.812,0.009027,-0.011811,-0.024668,0.006515,idle,0,0.019999999999999574
26.833,0.087401,0.002798,0.069832,0.005772,idle,0,0.020999999999997243
26.852,0.104315,-0.007142,0.090464,0.003189,idle,0,0.019000000000001904
26.871,-0.047424,0.046929,-0.084192,0.011937,idle,0,0.01899999999999835
26.892,0.057229,-0.089724,-0.048246,-0.008395,idle,0,0.021000000000000796
26.911,0.111305,0.062146,0.182715,0.005713,idle,0,0.019000000000001904
26.931,0.150512,0.002976,0.038584,0.005166,idle,0,0.019999999999999574
26.951,-0.049042,0.018932,-0.050776,0.007919,idle,0,0.019999999999999574
26.971,0.098217,-0.01181,-0.040096,0.003973,idle,0,0.019999999999999574
26.991,0.109338,0.062971,0.173411,0.015773,idle,0,0.019999999999999574
27.011,0.148039,-0.022732,0.083549,0.008072,idle,0,0.019999999999999574
27.031,0.028756,-0.112861,-0.112985,-0.016115,idle,0,0.019999999999999574
27.05,0.149425,-0.009818,-0.086751,-0.014856,idle,0,0.019000000000001904
27.07,0.120358,0.123381,0.23157,0.012792,idle,0,0.019999999999999574
27.09,0.055493,0.056643,0.145128,0.021562,idle,0,0.019999999999999574
27.11,-0.012701,-0.047014,-0.191099,0.007847,idle,0,0.019999999999999574
27.13,0.188047,-0.133442,-0.127119,-0.020411,idle,0,0.019999999999999574
27.15,0.1523,0.040628,-0.000139,-0.008203,idle,0,0.019999999999999574
27.17,-0.045788,0.143048,0.15493,0.022047,idle,0,0.020000000000003126
27.19,-0.152846,-0.023555,-0.021399,0.012927,idle,0,0.019999999999999574
27.209,0.182073,0.07631,0.042718,0.025603,idle,0,0.01899999999999835
27.229,0.245994,0.070894,0.052683,0.034661,idle,0,0.019999999999999574
27.249,-0.163899,0.023717,-0.022111,0.032473,idle,0,0.019999999999999574
27.269,-0.069743,-0.212275,-0.203102,-0.016477,idle,0,0.019999999999999574
27.289,0.175576,0.013617,-0.122201,-0.010458,idle,0,0.020000000000003126
27.309,-0.000904,0.077422,0.090169,0.007118,idle,0,0.019999999999999574
27.329,0.030025,0.084165,0.002157,0.022527,idle,0,0.019999999999999574
27.349,0.021587,-0.129443,0.113717,-0.007867,idle,0,0.019999999999999574
27.368,-0.000937,0.183839,0.052281,0.030474,idle,0,0.01899999999999835
27.388,-0.043163,0.143754,0.04714,0.05313,idle,0,0.020000000000003126
27.408,-0.144078,-0.161306,-0.093821,0.010243,idle,0,0.019999999999999574
27.43,-0.009423,-0.238996,-0.270417,-0.039605,idle,0,0.021999999999998465
27.448,0.069631,-0.01724,-0.128877,-0.035132,idle,0,0.018000000000000682
27.468,-0.060234,0.220282,0.086971,0.015951,idle,0,0.019999999999999574
27.488,-0.085328,0.055579,0.162817,0.023876,idle,0,0.019999999999999574
27.507,-0.086694,-0.076418,-0.031922,0.003818,idle,0,0.019000000000001904
27.527,0.105744,-0.035724,-0.088029,-0.004091,idle,0,0.019999999999999574
27.547,0.005982,0.029692,-0.102978,0.002666,idle,0,0.019999999999999574
27.567,-0.187795,-0.174152,-0.093965,-0.032698,idle,0,0.019999999999999574
27.587,-0.032373,-0.104427,-0.103534,-0.047044,idle,0,0.019999999999999574
27.607,0.023446,0.166519,0.047157,-0.004331,idle,0,0.019999999999999574
27.627,-0.059508,0.125727,0.068108,0.02168,idle,0,0.019999999999999574
27.647,-0.081197,-0.045826,0.010065,0.008179,idle,0,0.019999999999999574
27.667,-0.070758,-0.027537,-0.010871,0.001036,idle,0,0.020000000000003126
27.686,0.003721,0.05682,-0.18198,0.012193,idle,0,0.01899999999999835
27.706,-0.216251,-0.003103,-0.038205,0.009134,idle,0,0.019999999999999574
27.726,-0.122772,-0.168016,-0.141452,-0.026296,idle,0,0.019999999999999574
27.746,-0.074052,-0.041829,0.046065,-0.029403,idle,0,0.019999999999999574
27.766,-0.108793,0.326501,0.139141,0.041778,idle,0,0.019999999999999574
27.786,-0.171386,-0.040841,-0.019386,0.025254,idle,0,0.020000000000003126
27.805,-0.164798,-0.062212,-0.108065,0.007761,idle,0,0.01899999999999835
27.826,-0.146396,-0.136356,-0.132112,-0.021062,idle,0,0.021000000000000796
27.845,-0.152169,-0.102712,-0.109384,-0.037392,idle,0,0.01899999999999835
27.865,-0.128351,0.140428,-0.001145,-0.001828,idle,0,0.019999999999999574
27.885,-0.12962,0.036168,0.197222,0.005771,idle,0,0.020000000000003126
27.905,-0.151613,-0.024385,0.037876,-0.00026,idle,0,0.019999999999999574
27.925,-0.055917,-0.057474,-0.180754,-0.011703,idle,0,0.019999999999999574
27.945,-0.067911,-0.016257,-0.052043,-0.012614,idle,0,0.019999999999999574
27.965,-0.137794,-0.044031,0.008089,-0.018897,idle,0,0.019999999999999574
27.984,-0.10622,-0.016214,-0.026333,-0.018361,idle,0,0.019000000000001904
28.004,0.034098,-0.074275,-0.045496,-0.029544,idle,0,0.019999999999999574
28.028,0.015391,0.07277,0.064286,-0.009081,idle,0,0.023999999999997357
28.044,-0.095137,0.004288,0.063943,-0.006407,idle,0,0.01600000000000179
28.064,-0.032991,0.016059,-0.11595,-0.001914,idle,0,0.019999999999999574
28.084,0.051859,-0.082268,-0.086039,-0.017985,idle,0,0.019999999999999574
28.104,0.043131,0.03596,0.108731,-0.007196,idle,0,0.019999999999999574
28.124,-0.047489,0.043512,-0.045432,0.002946,idle,0,0.019999999999999574
28.143,-0.012731,-0.009475,-0.045373,0.000462,idle,0,0.019000000000001904
28.163,0.077247,-0.020248,-0.007656,-0.00368,idle,0,0.019999999999999574
28.183,0.030267,0.041721,0.071343,0.0054,idle,0,0.019999999999999574
28.203,-0.091477,0.032641,0.009295,0.010848,idle,0,0.019999999999999574
28.223,0.042556,0.028785,-0.024199,0.014436,idle,0,0.019999999999999574
28.243,0.074326,-0.132419,-0.119655,-0.014935,idle,0,0.019999999999999574
28.263,0.060414,0.002215,-0.112736,-0.011505,idle,0,0.020000000000003126
28.283,-0.096225,0.017125,0.129304,-0.005779,idle,0,0.019999999999999574
28.302,0.023023,0.147128,-0.031141,0.024802,idle,0,0.01899999999999835
28.322,0.046277,-0.173385,-0.031268,-0.014835,idle,0,0.019999999999999574
28.342,-0.007327,0.061066,-0.018202,0.000345,idle,0,0.019999999999999574
28.362,-0.072656,0.049062,0.070574,0.010088,idle,0,0.019999999999999574
28.382,0.078839,0.001302,-0.09378,0.008331,idle,0,0.020000000000003126
28.402,-0.025854,-0.047303,1.2e-05,-0.002796,idle,0,0.019999999999999574
28.422,-0.000663,0.089241,0.168394,0.015612,idle,0,0.019999999999999574
28.441,-0.03009,0.040415,-0.017163,0.020572,idle,0,0.01899999999999835
28.461,0.058433,0.001378,-0.196821,0.016733,idle,0,0.019999999999999574
28.481,-0.036588,-0.142038,-0.013029,-0.015021,idle,0,0.020000000000003126
28.501,0.002659,0.127514,0.185278,0.013486,idle,0,0.019999999999999574
28.521,-0.070092,0.021198,-0.025867,0.015029,idle,0,0.019999999999999574
28.541,0.048936,0.026789,-0.255769,0.017381,idle,0,0.019999999999999574
28.561,-0.008977,-0.063737,0.063419,0.001157,idle,0,0.019999999999999574
28.581,-0.012523,0.029902,0.183078,0.006906,idle,0,0.019999999999999574
28.6,-0.036692,0.065369,0.085248,0.018599,idle,0,0.019000000000001904
28.62,0.026494,0.008373,-0.127721,0.016554,idle,0,0.019999999999999574
28.64,-0.008151,-0.017144,-0.016611,0.009814,idle,0,0.019999999999999574
28.66,-0.021039,-0.015936,0.161511,0.004664,idle,0,0.019999999999999574
28.68,-0.016845,-0.061253,-0.077665,-0.008519,idle,0,0.019999999999999574
28.7,-0.013919,-0.021447,-0.034408,-0.011105,idle,0,0.019999999999999574
28.72,0.067547,0.051121,0.041785,0.00134,idle,0,0.019999999999999574
28.742,-0.077236,0.15466,0.166693,0.032004,idle,0,0.022000000000002018
28.76,-0.017105,-0.083955,-0.031896,0.008813,idle,0,0.018000000000000682
28.779,0.014297,-0.114154,-0.08313,-0.015781,idle,0,0.01899999999999835
28.799,0.041371,0.048412,0.034834,-0.002942,idle,0,0.019999999999999574
28.82,-0.074628,0.134605,0.131313,0.024567,idle,0,0.021000000000000796
28.839,0.026578,0.029164,0.008067,0.025487,idle,0,0.01899999999999835
28.859,0.008082,-0.109635,-0.014328,-0.001538,idle,0,0.020000000000003126
28.879,-0.002186,0.0099,0.00452,0.00075,idle,0,0.019999999999999574
28.898,-0.069547,0.030408,0.009776,0.006682,idle,0,0.01899999999999835
28.919,0.012348,0.054995,-0.035464,0.016344,idle,0,0.021000000000000796
28.938,0.062797,-0.042907,-0.090002,0.004494,idle,0,0.01899999999999835
28.958,-0.058758,0.012767,0.122052,0.006149,idle,0,0.019999999999999574
28.978,-0.024627,0.002001,-0.01023,0.005319,idle,0,0.020000000000003126
28.998,0.02834,0.020128,-0.060161,0.008281,idle,0,0.019999999999999574
29.018,0.032456,0.027215,0.054404,0.012068,idle,0,0.019999999999999574
29.037,-0.082981,0.085687,0.143695,0.026792,idle,0,0.01899999999999835
29.058,0.048503,-0.089696,-0.151162,0.003494,idle,0,0.021000000000000796
29.077,0.046611,-0.036044,-0.058995,-0.004413,idle,0,0.019000000000001904
29.097,0.030864,0.064923,0.143711,0.009454,idle,0,0.019999999999999574
29.119,-0.003931,0.078256,0.082265,0.023214,idle,0,0.021999999999998465
29.137,-0.000781,-0.027383,-0.03212,0.013095,idle,0,0.018000000000000682
29.157,0.042544,-0.038159,-0.05483,0.002844,idle,0,0.019999999999999574
29.177,0.051946,0.008299,-0.00207,0.003935,idle,0,0.019999999999999574
29.196,0.009729,-0.014409,0.03617,0.000266,idle,0,0.019000000000001904
29.217,-0.005707,0.054466,0.087962,0.011106,idle,0,0.020999999999997243
29.236,0.035327,-0.035886,0.017044,0.001708,idle,0,0.019000000000001904
29.256,0.061017,-0.014364,-0.050548,-0.001507,idle,0,0.019999999999999574
29.276,0.011528,0.007659,0.074556,0.000326,idle,0,0.019999999999999574
29.296,0.030159,0.087262,0.104187,0.017713,idle,0,0.019999999999999574
29.316,0.020818,0.015383,0.046365,0.017247,idle,0,0.019999999999999574
29.336,0.10284,-0.110722,-0.123689,-0.008347,idle,0,0.019999999999999574
29.355,0.048272,0.012556,-0.040515,-0.004166,idle,0,0.019000000000001904
29.375,-0.027349,0.121686,0.182414,0.021005,idle,0,0.019999999999999574
29.395,0.037709,-0.031836,-0.045519,0.010436,idle,0,0.019999999999999574
29.415,0.072511,0.035965,0.006032,0.015542,idle,0,0.019999999999999574
29.435,0.0163,-0.09975,0.006508,-0.007516,idle,0,0.019999999999999574
29.455,0.040366,-0.07722,-0.020832,-0.021457,idle,0,0.019999999999999574
29.475,-0.031069,0.162272,0.079934,0.015289,idle,0,0.020000000000003126
29.495,0.008862,0.098772,0.045672,0.031985,idle,0,0.019999999999999574
29.515,0.076604,-0.069826,-0.105066,0.011623,idle,0,0.019999999999999574
29.534,0.044039,-0.234397,-0.024791,-0.037581,idle,0,0.01899999999999835
29.554,0.033169,-0.10222,0.102575,-0.050509,idle,0,0.019999999999999574
29.574,-0.038413,0.282413,0.129942,0.016076,idle,0,0.020000000000003126
29.594,0.050099,0.046914,-0.109268,0.022243,idle,0,0.019999999999999574
29.614,0.084064,-0.179886,-0.026148,-0.018182,idle,0,0.019999999999999574
29.634,0.057655,-0.146336,0.0976,-0.043813,idle,0,0.019999999999999574
29.654,-0.009059,0.121439,0.102357,-0.010763,idle,0,0.019999999999999574
29.673,-0.014105,0.123928,-0.091249,0.016175,idle,0,0.01899999999999835
29.693,0.055811,-0.025194,-0.016616,0.007901,idle,0,0.020000000000003126
29.713,0.019949,-0.105806,0.042926,-0.01484,idle,0,0.019999999999999574
29.733,-0.000329,-0.009319,0.020349,-0.013736,idle,0,0.019999999999999574
29.753,-0.056875,0.141079,-5.1e-05,0.017227,idle,0,0.019999999999999574
29.773,-0.012704,-0.029331,-0.077263,0.007915,idle,0,0.019999999999999574
29.793,0.032275,-0.082923,-0.078603,-0.010252,idle,0,0.019999999999999574
29.813,-0.023663,-0.028093,0.018501,-0.01382,idle,0,0.019999999999999574
29.834,-0.038429,0.056076,0.047391,0.000159,idle,0,0.021000000000000796
29.852,-0.01088,0.045221,-0.007843,0.009171,idle,0,0.018000000000000682
29.872,0.03969,-0.073083,-0.090333,-0.007279,idle,0,0.019999999999999574
29.892,0.002268,-0.049866,-0.040687,-0.015797,idle,0,0.019999999999999574
29.912,0.012719,0.054441,0.086158,-0.001749,idle,0,0.019999999999999574
29.932,-0.027498,0.099432,0.021232,0.018487,idle,0,0.019999999999999574
29.952,0.016841,-0.076661,-0.088044,-0.000543,idle,0,0.020000000000003126
29.972,0.024346,-0.087219,-0.012676,-0.017878,idle,0,0.019999999999999574
29.991,-0.00979,0.073898,0.133328,0.000477,idle,0,0.01899999999999835
30.012,-0.027631,0.083079,-0.058713,0.016998,idle,0,0.021000000000000796
30.031,0.014638,-0.013043,-0.080388,0.010989,idle,0,0.01899999999999835
30.051,0.038055,-0.039104,0.041558,0.000971,idle,0,0.019999999999999574
30.071,0.007767,0.006191,0.088414,0.002015,idle,0,0.020000000000003126
30.091,-0.045623,0.034555,-0.0485,0.008523,idle,0,0.019999999999999574
30.111,-0.0093,0.014618,-0.002476,0.009742,idle,0,0.019999999999999574
30.131,0.048558,-0.008821,0.090316,0.006029,idle,0,0.019999999999999574
30.15,-0.008145,-0.012991,0.045651,0.002225,idle,0,0.01899999999999835
30.17,-0.006604,0.042044,-0.015602,0.010189,idle,0,0.020000000000003126
30.19,0.001902,0.015268,0.020103,0.011205,idle,0,0.019999999999999574
30.21,0.037476,-0.032906,0.02702,0.002383,idle,0,0.019999999999999574
30.23,0.01418,-0.025006,0.026351,-0.003095,idle,0,0.019999999999999574
30.25,-0.014233,0.061405,0.031242,0.009805,idle,0,0.019999999999999574
30.27,-0.017668,0.021742,0.005869,0.012193,idle,0,0.019999999999999574
30.29,0.015191,-0.048306,0.001309,9.3e-05,idle,0,0.019999999999999574
30.309,0.013559,-0.039483,-0.003745,-0.007822,idle,0,0.019000000000001904
30.329,-0.019034,0.037513,0.006765,0.001245,idle,0,0.019999999999999574
30.349,-0.032242,0.054561,0.0051,0.011908,idle,0,0.019999999999999574
30.369,0.01129,-0.014182,0.036564,0.00669,idle,0,0.019999999999999574
30.389,0.021232,-0.03168,0.022919,-0.000984,idle,0,0.019999999999999574
30.409,0.005425,-0.037579,-0.044056,-0.008303,idle,0,0.019999999999999574
30.429,0.004515,0.024595,-0.002601,-0.001723,idle,0,0.019999999999999574
30.449,0.00597,0.03376,0.049821,0.005373,idle,0,0.020000000000003126
30.468,0.024819,-0.019482,-0.002918,0.000402,idle,0,0.01899999999999835
30.488,0.026323,-0.038478,-0.046429,-0.007374,idle,0,0.019999999999999574
30.508,0.002267,-0.002946,-0.034376,-0.006488,idle,0,0.019999999999999574
30.528,-0.007775,0.033404,0.048094,0.00149,idle,0,0.019999999999999574
30.548,0.006609,0.030454,0.030463,0.007283,idle,0,0.019999999999999574
30.568,0.017942,0.019339,-0.039973,0.009694,idle,0,0.020000000000003126
30.588,0.025337,-0.033544,-0.088165,0.001047,idle,0,0.019999999999999574
30.608,-0.011792,0.008691,0.040435,0.002575,idle,0,0.019999999999999574
30.628,-0.014682,0.035071,0.02665,0.009075,idle,0,0.019999999999999574
30.648,0.001126,0.021765,-0.033721,0.011613,idle,0,0.019999999999999574
30.667,0.014521,-0.037465,-0.005091,0.001797,idle,0,0.019000000000001904
30.687,-0.002028,0.007708,0.013033,0.002979,idle,0,0.019999999999999574
30.707,-0.0223,0.01422,-0.015682,0.005227,idle,0,0.019999999999999574
30.727,-0.006423,0.024436,-0.013874,0.009069,idle,0,0.019999999999999574
30.746,0.008343,-0.018858,0.031464,0.003484,idle,0,0.01899999999999835
30.766,0.007888,-0.015964,-0.000841,-0.000406,idle,0,0.019999999999999574
30.786,-0.018673,0.032147,-0.018226,0.006105,idle,0,0.020000000000003126
30.806,-0.015227,0.00325,-0.021293,0.005534,idle,0,0.019999999999999574
30.826,0.01129,0.001321,0.072674,0.004691,idle,0,0.019999999999999574
30.846,0.012477,0.006627,0.051745,0.005079,idle,0,0.019999999999999574
30.866,0.002392,0.00815,0.003748,0.005693,idle,0,0.019999999999999574
30.886,-0.003832,-0.000143,-0.01505,0.004526,idle,0,0.019999999999999574
30.905,0.014384,-0.027762,0.010401,-0.001932,idle,0,0.019000000000001904
30.925,0.027807,-0.002755,0.052804,-0.002096,idle,0,0.019999999999999574
30.945,0.021637,0.020182,0.050173,0.002359,idle,0,0.019999999999999574
30.965,0.023357,0.001848,-0.031367,0.002257,idle,0,0.019999999999999574
30.985,0.066744,-0.050409,-0.052217,-0.008276,idle,0,0.019999999999999574
31.005,0.055197,0.003692,0.107295,-0.005883,idle,0,0.019999999999999574
31.03,0.08892,-0.046184,0.091373,-0.013943,idle,0,0.02500000000000213
31.045,0.051527,0.038855,-0.058888,-0.003383,idle,0,0.015000000000000568
31.064,0.086634,-0.070169,-0.036695,-0.01674,idle,0,0.01899999999999835
31.084,0.144793,0.050741,0.118872,-0.003244,idle,0,0.019999999999999574
31.104,0.073066,0.021475,0.12796,0.0017,idle,0,0.019999999999999574
31.124,0.030146,-0.039607,-0.128372,-0.006562,idle,0,0.019999999999999574
31.144,0.123362,-0.067976,-0.07524,-0.018845,idle,0,0.019999999999999574
31.164,0.143431,0.055588,0.110014,-0.003958,idle,0,0.020000000000003126
31.184,0.08868,0.032655,0.043367,0.003364,idle,0,0.019999999999999574
31.204,-0.062336,-0.029571,-0.123124,-0.003223,idle,0,0.019999999999999574
31.223,0.094889,-0.069237,-0.016432,-0.016425,idle,0,0.01899999999999835
31.243,0.17132,0.037491,0.081444,-0.005642,idle,0,0.019999999999999574
31.263,0.030837,0.049547,0.1131,0.005396,idle,0,0.020000000000003126
31.283,-0.030577,0.005538,0.011382,0.005424,idle,0,0.019999999999999574
31.303,0.096439,-0.04943,-0.023735,-0.005547,idle,0,0.019999999999999574
31.323,0.263123,0.054297,0.054338,0.006422,idle,0,0.019999999999999574
31.343,-0.061314,0.046563,0.117069,0.01445,idle,0,0.019999999999999574
31.363,-0.063401,-0.053212,-0.17655,0.000918,idle,0,0.019999999999999574
31.382,0.145431,0.006281,-0.011715,0.00199,idle,0,0.019000000000001904
31.402,0.066403,0.178229,0.104068,0.037238,idle,0,0.019999999999999574
31.422,-0.067483,0.008223,0.160361,0.031435,idle,0,0.019999999999999574
31.442,0.080785,0.081121,-0.053649,0.041372,idle,0,0.019999999999999574
31.462,0.037051,0.083034,-0.039698,0.049704,idle,0,0.019999999999999574
31.484,0.019359,0.047606,-0.04443,0.049285,idle,0,0.022000000000002018
31.501,-0.145608,-0.140146,-0.003002,0.011399,idle,0,0.01699999999999946
31.522,0.08383,-0.026462,-0.166442,0.003826,idle,0,0.020999999999997243
31.541,0.162704,0.0539,0.047472,0.013841,idle,0,0.019000000000001904
31.561,-0.151579,0.136255,0.133918,0.038324,idle,0,0.019999999999999574
31.581,-0.05807,-0.035529,0.027656,0.023553,idle,0,0.019999999999999574
31.601,0.122275,-0.09249,-0.114305,0.000345,idle,0,0.019999999999999574
31.621,0.030534,0.079948,-0.021859,0.016265,idle,0,0.019999999999999574
31.641,-0.114179,0.037649,0.201562,0.020542,idle,0,0.019999999999999574
31.661,-0.063844,-0.145771,-0.094671,-0.012721,idle,0,0.020000000000003126
31.681,0.083888,-0.050649,-0.155356,-0.020306,idle,0,0.019999999999999574
31.7,-0.017052,0.123796,0.014599,0.008514,idle,0,0.01899999999999835
31.72,-0.067805,0.064405,0.073152,0.019692,idle,0,0.019999999999999574
31.74,-0.069714,-0.104621,-0.000846,-0.00517,idle,0,0.019999999999999574
31.76,0.022933,-0.030004,-0.065791,-0.010137,idle,0,0.020000000000003126
31.78,0.022814,0.028624,-0.082577,-0.002385,idle,0,0.019999999999999574
31.8,-0.166613,0.073828,0.013079,0.012858,idle,0,0.019999999999999574
31.82,-0.03109,-0.221609,-0.168283,-0.034036,idle,0,0.019999999999999574
31.839,0.03572,-0.068033,-0.073913,-0.040835,idle,0,0.01899999999999835
31.859,-0.110802,0.108815,0.058475,-0.010905,idle,0,0.020000000000003126
31.879,-0.080104,0.029068,-0.081895,-0.00291,idle,0,0.019999999999999574
31.899,-0.168365,-0.010035,0.030812,-0.004335,idle,0,0.019999999999999574
31.92,-0.034625,0.098653,0.096984,0.016262,idle,0,0.021000000000000796
31.939,-0.176322,-0.040976,-0.155364,0.004815,idle,0,0.01899999999999835
31.959,-0.092387,-0.187205,-0.297506,-0.033589,idle,0,0.019999999999999574
31.979,-0.115556,0.023238,0.016626,-0.022224,idle,0,0.019999999999999574
31.998,-0.220358,0.093439,0.123128,0.000909,idle,0,0.019000000000001904
32.019,-0.149984,-0.056408,-0.119497,-0.010554,idle,0,0.020999999999997243
32.038,-0.087786,-0.008213,-0.104042,-0.010086,idle,0,0.01899999999999835
32.058,-0.171137,0.097152,0.190209,0.011361,idle,0,0.020000000000003126
32.078,-0.191492,-0.004455,-0.029009,0.008198,idle,0,0.020000000000003126
32.098,-0.123028,-0.165887,-0.284229,-0.026619,idle,0,0.01999999999999602
32.119,0.018375,-0.072982,-0.112505,-0.035891,idle,0,0.021000000000000796
32.138,-0.127807,0.109583,0.131871,-0.006797,idle,0,0.01899999999999835
32.157,-0.138466,0.018971,0.002652,-0.001643,idle,0,0.01899999999999835
32.177,0.008068,-0.072323,-0.112924,-0.015779,idle,0,0.020000000000003126
32.197,0.035016,-0.119023,-0.109261,-0.036428,idle,0,0.020000000000003126
32.217,-0.060098,0.008054,0.034913,-0.027531,idle,0,0.01999999999999602
32.237,-0.077768,0.098822,-0.04445,-0.002261,idle,0,0.020000000000003126
32.257,0.035695,0.050001,-0.000456,0.008192,idle,0,0.01999999999999602
32.277,0.095717,-0.057148,0.074819,-0.004876,idle,0,0.020000000000003126
32.296,-0.037487,-0.034241,-0.052656,-0.010749,idle,0,0.01899999999999835
32.317,-0.066772,0.026203,-0.015022,-0.003359,idle,0,0.021000000000000796
32.336,0.087864,0.019509,-0.070113,0.001215,idle,0,0.01899999999999835
32.356,0.029965,-0.047221,0.012432,-0.008472,idle,0,0.020000000000003126
32.376,-0.036375,0.001513,0.012812,-0.006475,idle,0,0.01999999999999602
32.396,0.053345,-0.005523,0.025153,-0.006285,idle,0,0.020000000000003126
32.416,-0.02358,0.051825,-0.029679,0.005337,idle,0,0.01999999999999602
32.436,0.062005,-0.067015,-0.06113,-0.009133,idle,0,0.020000000000003126
32.456,-0.023284,-0.043063,-0.038984,-0.015919,idle,0,0.020000000000003126
32.475,-0.027254,0.060959,0.040213,-0.000544,idle,0,0.01899999999999835
32.495,0.036094,0.093901,0.013277,0.018345,idle,0,0.01999999999999602
32.516,-0.001325,-0.046365,0.068007,0.005403,idle,0,0.021000000000000796
32.535,0.025565,0.052001,-0.073583,0.014723,idle,0,0.01899999999999835
32.555,-0.029651,-0.005146,0.009452,0.010749,idle,0,0.020000000000003126
32.575,0.002126,0.057538,0.034725,0.020107,idle,0,0.020000000000003126
32.595,0.045226,-0.043482,0.073284,0.007389,idle,0,0.01999999999999602
32.615,0.021149,0.023113,0.023281,0.010534,idle,0,0.020000000000003126
32.634,-0.090443,0.069939,-0.117359,0.022415,idle,0,0.01899999999999835
32.654,0.049985,-0.014923,-0.020984,0.014947,idle,0,0.020000000000003126
32.674,0.007272,-0.099895,-0.074013,-0.008021,idle,0,0.01999999999999602
32.694,-0.052683,-0.023469,-0.012276,-0.011111,idle,0,0.020000000000003126
32.714,0.011057,0.135516,0.094019,0.018215,idle,0,0.01999999999999602
32.734,-0.03833,0.08781,-0.013796,0.032134,idle,0,0.020000000000003126
32.753,0.032736,-0.064344,-0.090438,0.012838,idle,0,0.01899999999999835
32.773,-0.022054,-0.012248,0.022657,0.007821,idle,0,0.020000000000003126
32.794,-0.051742,-0.015769,0.044613,0.003103,idle,0,0.02099999999999369
32.813,0.00958,0.010189,-0.147814,0.00452,idle,0,0.019000000000005457
32.833,-0.009662,0.009193,0.041232,0.005455,idle,0,0.01999999999999602
32.853,0.006271,0.140107,0.190586,0.032385,idle,0,0.020000000000003126
32.873,-0.035889,-0.101572,-0.044808,0.005594,idle,0,0.01999999999999602
32.893,0.000194,-0.055585,-0.135733,-0.006642,idle,0,0.020000000000003126
32.913,0.023238,0.021892,0.010802,-0.000935,idle,0,0.01999999999999602
32.932,0.027554,0.081332,-0.007006,0.015518,idle,0,0.019000000000005457
32.952,-0.070786,0.001768,0.085671,0.012768,idle,0,0.01999999999999602
32.972,-0.027018,-0.033688,-0.023604,0.003477,idle,0,0.020000000000003126
32.992,0.084971,0.006963,-0.114232,0.004174,idle,0,0.01999999999999602
33.012,-0.076109,0.032501,0.179205,0.00984,idle,0,0.020000000000003126
33.032,-0.002644,0.080263,0.010751,0.023924,idle,0,0.01999999999999602
33.052,-0.08579,-0.054076,-0.072593,0.008324,idle,0,0.020000000000003126
33.071,0.130231,-0.057369,-0.016079,-0.004814,idle,0,0.01899999999999835
33.091,0.004649,0.090303,0.103135,0.014209,idle,0,0.020000000000003126
33.112,-0.110949,-0.007351,-0.066301,0.009897,idle,0,0.021000000000000796
33.131,0.01642,0.02046,-0.1195,0.01201,idle,0,0.01899999999999835
33.151,0.023833,-0.136112,0.034759,-0.017615,idle,0,0.020000000000003126
33.171,-0.032684,0.135821,0.092459,0.013072,idle,0,0.01999999999999602
